question_num,id,trialnum,question,tot,rt,test_trialnum,subj_answer,correct_answer,recall,mistake,recall_notChecked81,2,1,In what country is the Dalai Lama's palace?,N/A,0,58,tibet,TIBET,C,0,C135,2,2,What was the name of the mythological creature with the head of a woman and the body of a lion that killed all those unable to solve its riddle?,N/A,0,18,sphinx,SPHINX,C,0,C13,2,3,What is the name of Batman's butler?,N/A,0,113,alfred,ALFRED,C,0,C96,2,4,What is the last name of the person who has graced the most Sports Illustrated covers?,yes,1.839147777,67,jordan,JORDAN,C,0,C64,2,5,What kind of poison did Socrates take at his execution?,yes,2.265823535,127,hemlock,HEMLOCK,C,0,C40,2,6,What's the largest gland in the human body?,N/A,0,53,pancreas,LIVER,I,0,I142,2,7,Which big cat usually carries its dead prey up into a tree to eat it?,N/A,0,24,leopard,LEOPARD,C,0,C67,2,8,What is the last name of the man who wrote the Star Spangled Banner?,no,1.755709972,149,,KEY,I,0,I144,2,9,What is the last name of the composer who wrote the opera 'Don Giovanni'?,no,1.883418347,81,mozart,MOZART,C,0,C60,2,10,What is the name of the unit of measure that refers to a six-foot depth of water?,yes,2.467452539,5,fathoms,FATHOM,C,0,I103,2,11,What is the most populous country in Africa?,no,1.828465345,84,nigeria,NIGERIA,C,0,C34,2,12,What is the name of the avenue that immediately follows Atlantic Avenue in the game of Monopoly?,no,1.973723408,13,ventnor,VENTNOR,C,0,C71,2,13,What is the name of the British admiral who won the Battle of Trafalgar?,yes,3.209500764,45,nelson,NELSON,C,0,C42,2,14,In addition to the Kentucky Derby and the Belmont Stakes what horse race comprises the Triple Crown?,no,1.639415609,25,peakness,PREAKNESS,C,0,I102,2,15,What is the capital of Russia?,N/A,0,96,moscow,MOSCOW,C,0,C138,2,16,What is the largest city in Canada?,N/A,0,39,montreal,TORONTO,I,0,I136,2,17,According to the FDA what's the only fish that produces real caviar?,N/A,0,63,salmon,STURGEON,I,0,I143,2,18,What is the Taj Majal made of?,N/A,0,22,marble,MARBLE,C,0,C118,2,19,What is the last name of the man who began the Protestant reformation in Germany?,N/A,0,102,luther,LUTHER,C,0,C62,2,20,In which city is Michelangelo's statue of David located?,N/A,0,103,rome,FLORENCE,I,0,I97,2,21,Brown vs. Board of Education the landmark civil-rights case originated in what state?,yes,2.161186934,17,kansas,KANSAS,C,0,C54,2,22,What is the name of the island on which Napoleon was born?,N/A,0,109,sicily,CORSICA,I,0,I115,2,23,Who was the leader of the Argonauts?,N/A,0,55,jason,JASON,C,0,C3,2,24,What is the last name of the author who wrote Brothers Karamazov?,N/A,0,120,tolstoy,DOSTOEVSKY,I,0,I106,2,25,What is the longest river in South America?,N/A,0,119,amazon,AMAZON,C,0,C52,2,26,What is the capital of Wyoming?,no,1.795835957,89,,CHEYENNE,I,0,I50,2,27,The general named Hannibal was from what city?,N/A,0,16,carthage,CARTHAGE,C,0,C17,2,28,What is the last name of the author who wrote Oliver Twist?,N/A,0,100,dickens,DICKENS,C,0,C109,2,29,What is the name of the kind of cat that spoke to Alice in the story Alice's adventures in Wonderland?,no,1.817275793,50,cheshire,CHESHIRE,C,0,C48,2,30,What is the name of the man who assassinated Abraham Lincoln?,no,1.525679158,146,booth,BOOTH,C,0,C16,2,31,What is the last name of the person who always ended her PBS cooking shows with 'Bon appetit'?,N/A,0,92,julia chile,CHILD,C,0,I65,2,32,Who was the most famous Greek doctor?,N/A,0,41,hippocrates,HIPPOCRATES,C,0,C11,2,33,What is the last name of the Confederate general whose last words were 'Let us cross the river and rest in the shade'?,N/A,0,73,lee,JACKSON,I,0,I12,2,34,What drug was named after the Greek god of dreams?,yes,3.283787809,145,morphine,MORPHINE,C,0,C139,2,35,In which country is Angel Falls located?,no,1.658308709,131,venezuela,VENEZUELA,C,0,C44,2,36,What is the last name of the author of Little Women?,no,1.900746252,142,alcott,ALCOTT,C,0,C69,2,37,What is the highest mountain in the U.S.?,no,2.111750028,44,,MCKINLEY,I,0,I86,2,38,What nuts are used in marzipan? ,N/A,0,112,macadamia,ALMONDS,I,0,I35,2,39,What is the last name of the artist who is famous for producing images of Campbell's soup cans?,no,1.949061138,60,warhol,WARHOL,C,0,C88,2,40,What igneous rock makes up the bulk of Devils Tower?,N/A,0,90,granite,BASALT,I,0,I105,2,41,What virus killed two million people in 1967?,N/A,0,42,spanish flu,SMALLPOX,I,0,I120,2,42,What city was Martin Luther King Jr. assassinated in?,no,2.099204168,148,,MEMPHIS,I,0,I133,2,43,What nation signed away a fourth of its European land in a 1918 Treaty?,N/A,0,105,russia,RUSSIA,C,0,C46,2,44,In what European city is the Parthenon located?,N/A,0,110,athens,ATHENS,C,0,C107,2,45,What is the last name of the first person to set foot on the moon?,N/A,0,133,armstrong,ARMSTRONG,C,0,C140,2,46,What country was formerly known as the Belgian Congo?,N/A,0,49,congo,ZAIRE,I,0,I9,2,47,What is the last name of Batman's secret identity in the Batman comics?,N/A,0,10,wayne,WAYNE,C,0,C74,2,48,In which sport does a rider on horseback hit a ball with a mallet?,N/A,0,77,polo,POLO,C,0,C20,2,49,What is the capital of Kentucky?,N/A,0,33,lousiville,FRANKFORT,I,0,I18,2,50,What is the capital of Delaware?,no,1.888871865,139,,DOVER,I,0,I93,2,51,What island is the largest in the world excluding Australia?,N/A,0,3,indonesia,GREENLAND,I,0,I28,2,52,What is the last name of the author of the book 1984?,N/A,0,144,orwell,ORWELL,C,0,C89,2,53,What is the last name of the renowned English author who had been a Polish sailor?,no,1.858038586,86,conrad,CONRAD,C,0,C5,2,54,What was the name of the zeppelin that exploded in Lakehurst N.J. in 1937?,no,2.470062008,121,hindenberg,HINDENBURG,C,0,I101,2,55,In which city is Heathrow Airport located?,no,1.582397304,71,london,LONDON,C,0,C51,2,56,Who was the first ruler of the Holy Roman Empire?,no,1.310937768,94,charlemagne,CHARLEMAGNE,C,0,C78,2,57,What country suffered the slaughter of half a million Tutsis and Hutus in 1994?,N/A,0,140,rwanda,RWANDA,C,0,C8,2,58,What is the unit of electrical power that refers to the current of one ampere at one volt?,N/A,0,68,watt,WATT,C,0,C30,2,59,What is the name of the organ that produces insulin?,no,1.76172361,14,pancreas,PANCREAS,C,0,C68,2,60,What Peanuts character clings to a security blanket?,N/A,0,80,,LINUS,I,0,I131,2,61,What staple crop does half the world's population depend on?,N/A,0,88,rice,RICE,C,0,C77,2,62,What brand name drug is most often prescribed to treat attention deficit disorder?,N/A,0,137,adderall,RITALIN,I,0,I6,2,63,In the bible whose name was changed to Israel?,N/A,0,91,david,JACOB,I,0,I129,2,64,What was Cinderella's coach made from?,N/A,0,20,pumpkins,PUMPKIN,C,0,I41,2,65,What is the name of the furry animal that attacks cobra snakes?,N/A,0,150,mongoose,MONGOOSE,C,0,C121,2,66,What is the name for the astronomical bodies that enter the earth's atmosphere?,N/A,0,21,meteor,METEORS,C,0,I73,2,67,What country has the ancient ruins of Machu Picchu?,N/A,0,72,chile,PERU,I,0,I56,2,68,What is the last name of the commander who lost the battle of the Little Bighorn River?,no,1.425795757,99,,CUSTER,I,0,I2,2,69,What is the name of the collar bone?,no,1.339450694,93,clavicle,CLAVICLE,C,0,C84,2,70,What's heaven to fallen Norse warriors?,N/A,0,111,valhalla,VALHALLA,C,0,C87,2,71,What is the more common name for a mandrill?,yes,2.869542865,29,baboon,BABOON,C,0,C134,2,72,What country's civil war was described as a 'rehearsal for World War II'?,N/A,0,54,austriahungary,SPAIN,I,0,I38,2,73,What is the last name of the author who wrote Brave New World?,no,1.150332641,57,huxley,HUXLEY,C,0,C124,2,74,What major city is on an island in the St. Lawrence River?,no,0.581362575,64,,MONTREAL,I,0,I72,2,75,What colorless gas is essential in the production of fertilizers and light bulbs?,N/A,0,28,neon,NITROGEN,I,0,I61,2,76,What is the last name of the author of the James Bond novels?,N/A,0,62,irving,FLEMING,I,0,I23,2,77,What country gave the world the word 'geyser' for a hot spring?,N/A,0,76,usa,ICELAND,I,0,I47,2,78,In what ancient city were the Hanging Gardens located?,N/A,0,69,babylon,BABYLON,C,0,C132,2,79,What was the last name of the woman who designed and sewed the first American flag?,N/A,0,65,,ROSS,I,0,I111,2,80,What is the name for a medical doctor who specializes in diseases of the skin?,yes,2.638071988,134,dermatologist,DERMATOLOGIST,C,0,C14,2,81,Who was the title character in 'The Merchant of Venice'?,yes,2.722656939,95,antonio,ANTONIO,C,0,C127,2,82,What is the name of Socrates' most famous student?,N/A,0,26,plato,PLATO,C,0,C75,2,83,What is the world's largest snake?,N/A,0,75,anaconda,PYTHON,I,0,I91,2,84,What is the last name of the man who supposedly killed Jesse James?,yes,2.141778864,70,,FORD,I,0,I43,2,85,What is the last name of the second U.S. president?,N/A,0,118,adams,ADAMS,C,0,C27,2,86,What is the name of the submarine in Jules Vernes's 20000 Leagues under the Sea?,yes,2.480690392,123,nautilus,NAUTILUS,C,0,C33,2,87,What is the name of the crime in which a person purposely betrays their country?,N/A,0,82,treaspm,TREASON,I,0,I70,2,88,What is the name of the mansion in Virginia that was Thomas Jefferson's home?,N/A,0,78,jefferson manor,MONTICELLO,I,0,I55,2,89,What is the last name of the scientist who discovered radium?,yes,4.063840884,130,marie curie,CURIE,C,0,I85,2,90,What animals travel in pods? ,N/A,0,97,dolphins,WHALES,I,0,I76,2,91,What is the last name of the man who rode horseback in 1775 to warn that the British were coming?,no,0.602067739,114,revere,REVERE,C,0,C113,2,92,What is the last name of the villainous captain in the story Peter Pan?,N/A,0,40,hook,HOOK,C,0,C100,2,93,What kind of animal was befriended by the escaped slave Androcles in an Aesop Fable?,yes,2.247514439,37,lion,LION,C,0,C147,2,94,What is the name of the constellation that looks like a flying horse?,N/A,0,56,pegasus,PEGASUS,C,0,C126,2,95,What is the last name of the artist who painted Guernica?,N/A,0,32,picasso,PICASSO,C,0,C59,2,96,What is the name of a female sheep?,yes,4.488690028,116,ewe,EWE,C,0,C145,2,97,What is the last name of the man who invented dynamite?,N/A,0,15,nobel,NOBEL,C,0,C45,2,98,What is the last name of the actress who received the Best Actress Award for the movie 'Mary Poppins'?,yes,2.450317004,12,julie andrews,ANDREWS,C,0,I79,2,99,What spice do chefs pay the most for?,N/A,0,48,saffron,SAFFRON,C,0,C80,2,100,What is the capital of Chile?,no,1.766030398,11,,SANTIAGO,I,0,I141,2,101,What is the name of the captain of the Pequod in the book Moby Dick?,yes,2.293996319,128,ahab,AHAB,C,0,C112,2,102,What is the first book of the Old Testament?,N/A,0,35,deuteronomy,GENESIS,I,0,I83,2,103,What is the name of the mountain range that separates Asia from Europe?,no,2.304871703,101,ural,URAL,C,0,C63,2,104,What is the last name of the author who wrote 'The Old Man and the Sea'?,N/A,0,126,lovecraft,HEMINGWAY,I,0,I7,2,105,What is the last name of the man who first studied genetic inheritance in plants?,yes,1.978118993,117,mendel,MENDEL,C,0,C19,2,106,What is May's birthstone?,no,1.541503916,125,emerald,EMERALD,C,0,C57,2,107,What is the last name of the man who invented the phonograph?,no,1.395902403,83,bell,EDISON,I,0,I66,2,108,Over which river is the George Washington Bridge?,yes,5.814379423,79,hudson,HUDSON,C,0,C26,2,109,What was the name of the Union Ironclad ship that fought the Confederate ironclad Merrimack?,no,1.906303975,8,monitor,MONITOR,C,0,C82,2,110,What is the last name of the Russian novelist Teddy Roosevelt called 'a sexual and moral pervert'?,N/A,0,98,tolstoy,TOLSTOY,C,0,C10,2,111,What is the last name of the man who wrote Canterbury Tales?,N/A,0,136,grim,CHAUCER,I,0,I108,2,112,Who was The Friendly Ghost?,N/A,0,30,caspar,CASPER,C,0,I1,2,113,What is the name of the palace in London in which the monarch of England resides?,N/A,0,141,birmingham,BUCKINGHAM,I,0,I146,2,114,What country joins Central America to South America?,N/A,0,66,panama,PANAMA,C,0,C92,2,115,What is the last name of the man who showed that lightning is electricity?,N/A,0,36,edison,FRANKLIN,I,0,I58,2,116,What's the northernmost Baltic republic?,no,2.972642686,104,estonia,ESTONIA,C,0,C39,2,117,What country's capital is Tripoli?,no,2.958293909,6,libya,LIBYA,C,0,C24,2,118,What is the capital of Jamaica?,no,1.094794918,46,,KINGSTON,I,0,I99,2,119,What is the last name of the president who is on the far right when you gaze at Mount Rushmore?,N/A,0,31,washington,LINCOLN,I,0,I116,2,120,What is the last name of the person who defined 'The Beat Generation'?,N/A,0,107,kerouac,KEROUAC,C,0,C36,2,121,What sitcom received a record 117 Emmy nominations?,no,0.985057502,138,cheers,CHEERS,C,0,C119,2,122,What is the name of the ship that carried the pilgrims to America in 1620?,N/A,0,19,mayflower,MAYFLOWER,C,0,C130,2,123,What's the 'Q' short for in Q-Tips?,no,2.461164123,74,quality,QUALITY,C,0,C94,2,124,What were raced in Greek and Roman hippodromes? ,no,1.427589045,124,horses,HORSES,C,0,C110,2,125,What is the capital of Denmark?,N/A,0,1,kiel,COPENHAGEN,I,0,I95,2,126,What is the last name of the discoverer of the vaccination for smallpox?,yes,1.964464004,132,,JENNER,I,0,I104,2,127,What is the name of the process by which plants make their food?,N/A,0,2,photosynthesis,PHOTOSYNTHESIS,C,0,C0,2,128,What is the name of the river that runs through Rome?,yes,5.141092274,108,tiber,TIBER,C,0,C49,2,129,What is the last name of the criminal known as Scarface?,no,1.957913767,122,al capone,CAPONE,C,0,I149,2,130,What is the last name of the singer who recorded 'Heartbreak Hotel' and 'All Shook Up'?,no,1.362826282,38,,PRESLEY,I,0,I148,2,131,What country's ships transported four million African slaves to Brazil?,N/A,0,27,spain,PORTUGAL,I,0,I137,2,132,What liquor packs the punch in an Aztec Punch?,no,1.00954276,106,tequila,TEQUILA,C,0,C128,2,133,What is the name of a dried plum?,N/A,0,9,prune,PRUNE,C,0,C21,2,134,What is the last name of the first U.S. President to die in office?,N/A,0,59,adams,HARRISON,I,0,I31,2,135,What was the capital of Czechoslovakia?,no,1.717674722,4,prague,PRAGUE,C,0,C32,2,136,What is the capital of Bulgaria?,N/A,0,23,geneva,SOPHIA,I,0,I4,2,137,What was the name of the first Apollo lunar module that landed the first man on the moon?,N/A,0,129,apollo 1,EAGLE,I,0,I122,2,138,Which dynasty was in power throughout the 1500's in China?,N/A,0,43,ming,MING,C,0,C90,2,139,What Old Testament patriarch is mentioned in the Bible a record 1005 times?,N/A,0,143,abraham,DAVID,I,0,I125,2,140,What is the name of the American who starred in the 1936 Olympics?,no,1.535126037,147,owens,OWENS,C,0,C53,2,141,What is the northernmost country in continental South America?,no,1.147289054,85,colombia,COLOMBIA,C,0,C114,2,142,What company invented the microprocessor in 1971?,N/A,0,51,microsoft,INTEL,I,0,I98,2,143,Of which country is Nairobi the capital?,N/A,0,135,niger,KENYA,I,0,I29,2,144,What is the last name of the man who assassinated President John Kennedy?,no,3.886679173,61,booth,OSWALD,I,0,I25,2,145,What is the name of the project which developed the atomic bomb during World War II?,N/A,0,115,manhatten,MANHATTAN,C,0,I22,2,146,Of which country is Budapest the capital?,N/A,0,34,austria,HUNGARY,I,0,I37,2,147,What is the last name of the boy in the book Treasure Island?,no,1.341604559,87,hawkins,HAWKINS,C,0,C123,2,148,What is the last name of the man who was president directly after James Madison?,no,2.177223194,7,monroe,MONROE,C,0,C15,2,149,What is the last name of the male star of the movie Casablanca?,no,1.23776554,47,,BOGART,I,0,I117,2,150,What human organ (or organs) does a nephrologist treat?,N/A,0,52,kidneys,KIDNEY,C,0,I118,3,1,What is the last name of the man who began the Protestant reformation in Germany?,N/A,0,81,luther,LUTHER,C,0,C122,3,2,Which dynasty was in power throughout the 1500's in China?,no,3.933861306,98,ming,MING,C,0,C71,3,3,What is the name of the British admiral who won the Battle of Trafalgar?,yes,2.001908021,75,nelson,NELSON,C,0,C80,3,4,What is the capital of Chile?,N/A,0,13,santiago,SANTIAGO,C,0,C119,3,5,What is the name of the ship that carried the pilgrims to America in 1620?,N/A,0,15,mayflower,MAYFLOWER,C,0,C85,3,6,What animals travel in pods? ,N/A,0,97,whales,WHALES,C,0,C76,3,7,What is the last name of the man who rode horseback in 1775 to warn that the British were coming?,N/A,0,4,revere,REVERE,C,0,C75,3,8,What is the world's largest snake?,N/A,0,55,anaconda,PYTHON,I,0,I109,3,9,What is the name of the kind of cat that spoke to Alice in the story Alice's adventures in Wonderland?,N/A,0,34,cheshire,CHESHIRE,C,0,C117,3,10,What human organ (or organs) does a nephrologist treat?,no,1.76295594,9,liver,KIDNEY,I,0,I21,3,11,What is the last name of the first U.S. President to die in office?,N/A,0,29,harrison,HARRISON,C,0,C94,3,12,What were raced in Greek and Roman hippodromes? ,no,0.934688298,94,chariots,HORSES,I,0,I40,3,13,What's the largest gland in the human body?,no,2.036821426,121,liver,LIVER,C,0,C87,3,14,What is the more common name for a mandrill?,N/A,0,69,lily,BABOON,I,0,I10,3,15,What is the last name of the man who wrote Canterbury Tales?,no,0.74341987,133,chaucer,CHAUCER,C,0,C128,3,16,What is the name of a dried plum?,N/A,0,18,prune,PRUNE,C,0,C139,3,17,In which country is Angel Falls located?,N/A,0,57,venzuela,VENEZUELA,C,0,I138,3,18,What is the largest city in Canada?,N/A,0,45,toronto,TORONTO,C,0,C6,3,19,In the bible whose name was changed to Israel?,N/A,0,44,jacob,JACOB,C,0,C42,3,20,In addition to the Kentucky Derby and the Belmont Stakes what horse race comprises the Triple Crown?,no,0.848646156,115,preakness,PREAKNESS,C,0,C39,3,21,What country's capital is Tripoli?,N/A,0,123,tunisia,LIBYA,I,0,I98,3,22,Of which country is Nairobi the capital?,N/A,0,62,kenya,KENYA,C,0,C44,3,23,What is the last name of the author of Little Women?,yes,1.936511062,67,alcott,ALCOTT,C,0,C111,3,24,What is the name for a medical doctor who specializes in diseases of the skin?,no,2.020336659,132,dermatologist,DERMATOLOGIST,C,0,C55,3,25,What is the last name of the scientist who discovered radium?,yes,2.588131872,144,curie,CURIE,C,0,C69,3,26,What is the highest mountain in the U.S.?,N/A,0,119,mckinley,MCKINLEY,C,0,C18,3,27,What is the capital of Delaware?,N/A,0,25,dover,DOVER,C,0,C50,3,28,The general named Hannibal was from what city?,N/A,0,146,carthage,CARTHAGE,C,0,C142,3,29,Which big cat usually carries its dead prey up into a tree to eat it?,N/A,0,56,leopard,LEOPARD,C,0,C93,3,30,What island is the largest in the world excluding Australia?,no,4.781810429,95,antarctica,GREENLAND,I,0,I26,3,31,What was the name of the Union Ironclad ship that fought the Confederate ironclad Merrimack?,N/A,0,77,monitor,MONITOR,C,0,C84,3,32,What's heaven to fallen Norse warriors?,N/A,0,60,valhalla,VALHALLA,C,0,C14,3,33,Who was the title character in 'The Merchant of Venice'?,no,1.531213772,32,antonio,ANTONIO,C,0,C136,3,34,According to the FDA what's the only fish that produces real caviar?,N/A,0,126,salmon,STURGEON,I,0,I82,3,35,What is the last name of the Russian novelist Teddy Roosevelt called 'a sexual and moral pervert'?,N/A,0,17,dostoevsky,TOLSTOY,I,0,I17,3,36,What is the last name of the author who wrote Oliver Twist?,yes,2.829853417,76,dickens,DICKENS,C,0,C74,3,37,In which sport does a rider on horseback hit a ball with a mallet?,N/A,0,147,polo,POLO,C,0,C129,3,38,What was Cinderella's coach made from?,N/A,0,70,pumpkin,PUMPKIN,C,0,C29,3,39,What is the last name of the man who assassinated President John Kennedy?,yes,2.249970768,12,oswald,OSWALD,C,0,C96,3,40,What is the last name of the person who has graced the most Sports Illustrated covers?,N/A,0,53,jordan,JORDAN,C,0,C67,3,41,What is the last name of the man who wrote the Star Spangled Banner?,yes,1.747383323,2,key,KEY,C,0,C41,3,42,What is the name of the furry animal that attacks cobra snakes?,N/A,0,91,mongoose,MONGOOSE,C,0,C56,3,43,What is the last name of the commander who lost the battle of the Little Bighorn River?,N/A,0,124,custer,CUSTER,C,0,C79,3,44,What spice do chefs pay the most for?,N/A,0,141,saffron,SAFFRON,C,0,C34,3,45,What is the name of the avenue that immediately follows Atlantic Avenue in the game of Monopoly?,no,2.493228652,105,ventnor,VENTNOR,C,0,C104,3,46,What is the name of the process by which plants make their food?,N/A,0,26,photosynthesis,PHOTOSYNTHESIS,C,0,C33,3,47,What is the name of the crime in which a person purposely betrays their country?,N/A,0,27,treason,TREASON,C,0,C100,3,48,What kind of animal was befriended by the escaped slave Androcles in an Aesop Fable?,no,1.980436743,143,lion,LION,C,0,C46,3,49,In what European city is the Parthenon located?,N/A,0,128,athens,ATHENS,C,0,C36,3,50,What sitcom received a record 117 Emmy nominations?,no,1.67712209,71,cheers,CHEERS,C,0,C47,3,51,In what ancient city were the Hanging Gardens located?,N/A,0,103,babylon,BABYLON,C,0,C81,3,52,In what country is the Dalai Lama's palace?,N/A,0,52,china,TIBET,I,0,I121,3,53,What is the name for the astronomical bodies that enter the earth's atmosphere?,N/A,0,14,meteorite,METEORS,C,0,I133,3,54,What nation signed away a fourth of its European land in a 1918 Treaty?,no,1.465704392,6,russia,RUSSIA,C,1,C144,3,55,What is the last name of the composer who wrote the opera 'Don Giovanni'?,no,2.399715366,112,mozart,MOZART,C,0,C65,3,56,Who was the most famous Greek doctor?,yes,1.714254166,54,hippocrates,HIPPOCRATES,C,0,C103,3,57,What is the most populous country in Africa?,yes,2.55963503,78,nigeria,NIGERIA,C,0,C66,3,58,Over which river is the George Washington Bridge?,no,1.445532712,145,hudson,HUDSON,C,0,C48,3,59,What is the name of the man who assassinated Abraham Lincoln?,N/A,0,11,john wilkes booth,BOOTH,C,0,I9,3,60,What is the last name of Batman's secret identity in the Batman comics?,N/A,0,80,wayne,WAYNE,C,0,C143,3,61,What is the Taj Majal made of?,N/A,0,68,marble,MARBLE,C,0,C120,3,62,What city was Martin Luther King Jr. assassinated in?,N/A,0,138,memphis,MEMPHIS,C,0,C5,3,63,What was the name of the zeppelin that exploded in Lakehurst N.J. in 1937?,no,1.70536983,130,hindenburg,HINDENBURG,C,1,C86,3,64,What nuts are used in marzipan? ,N/A,0,84,almonds,ALMONDS,C,0,C88,3,65,What igneous rock makes up the bulk of Devils Tower?,no,1.369517603,33,basalt,BASALT,C,1,C2,3,66,What is the name of the collar bone?,N/A,0,61,clavical,CLAVICLE,I,0,I72,3,67,What colorless gas is essential in the production of fertilizers and light bulbs?,N/A,0,117,methane,NITROGEN,I,0,I0,3,68,What is the name of the river that runs through Rome?,no,0.594239318,72,tibur,TIBER,C,0,I90,3,69,What Old Testament patriarch is mentioned in the Bible a record 1005 times?,N/A,0,21,abraham,DAVID,I,0,I123,3,70,What is the last name of the man who was president directly after James Madison?,N/A,0,50,monroe,MONROE,C,0,C53,3,71,What is the northernmost country in continental South America?,N/A,0,131,colombia,COLOMBIA,C,0,C141,3,72,What is the name of the captain of the Pequod in the book Moby Dick?,yes,1.606219551,36,ahab,AHAB,C,0,C83,3,73,What is the name of the mountain range that separates Asia from Europe?,N/A,0,149,urals,URAL,C,0,I8,3,74,What is the unit of electrical power that refers to the current of one ampere at one volt?,N/A,0,142,ohm,WATT,I,0,I110,3,75,What is the capital of Denmark?,N/A,0,129,copenhagen,COPENHAGEN,C,0,C68,3,76,What Peanuts character clings to a security blanket?,yes,1.508111136,122,linus,LINUS,C,0,C62,3,77,In which city is Michelangelo's statue of David located?,N/A,0,28,florcne,FLORENCE,I,0,I132,3,78,What was the last name of the woman who designed and sewed the first American flag?,N/A,0,118,ross,ROSS,C,0,C28,3,79,What is the last name of the author of the book 1984?,N/A,0,20,orwell,ORWELL,C,0,C124,3,80,What major city is on an island in the St. Lawrence River?,N/A,0,7,montreal,MONTREAL,C,0,C113,3,81,What is the last name of the villainous captain in the story Peter Pan?,N/A,0,135,hook,HOOK,C,0,C1,3,82,What is the name of the palace in London in which the monarch of England resides?,yes,1.691411725,10,buckingham,BUCKINGHAM,C,0,C30,3,83,What is the name of the organ that produces insulin?,N/A,0,89,,PANCREAS,I,0,I146,3,84,What country joins Central America to South America?,N/A,0,148,panama,PANAMA,C,0,C89,3,85,What is the last name of the renowned English author who had been a Polish sailor?,no,1.52306174,87,ca,CONRAD,I,0,I112,3,86,What is the first book of the Old Testament?,N/A,0,96,genesis,GENESIS,C,0,C27,3,87,What is the name of the submarine in Jules Vernes's 20000 Leagues under the Sea?,no,1.737317335,23,nautilus,NAUTILUS,C,0,C135,3,88,What was the name of the mythological creature with the head of a woman and the body of a lion that killed all those unable to solve its riddle?,N/A,0,88,medus,SPHINX,I,0,I16,3,89,What is the last name of the person who always ended her PBS cooking shows with 'Bon appetit'?,no,1.743283296,38,child,CHILD,C,0,C13,3,90,What is the name of Batman's butler?,N/A,0,106,alfred,ALFRED,C,0,C145,3,91,What is the last name of the man who invented dynamite?,yes,1.600592567,74,,NOBEL,I,0,I57,3,92,What is the last name of the man who invented the phonograph?,N/A,0,31,bell,EDISON,I,0,I11,3,93,What is the last name of the Confederate general whose last words were 'Let us cross the river and rest in the shade'?,yes,1.874213703,86,jackson,JACKSON,C,1,C60,3,94,What is the name of the unit of measure that refers to a six-foot depth of water?,N/A,0,65,fathom,FATHOM,C,0,C61,3,95,What is the last name of the author of the James Bond novels?,yes,1.662590852,16,,FLEMING,I,0,I116,3,96,What is the last name of the person who defined 'The Beat Generation'?,no,1.475876061,125,kerouac,KEROUAC,C,0,C23,3,97,What country gave the world the word 'geyser' for a hot spring?,N/A,0,82,germany,ICELAND,I,0,I51,3,98,Who was the first ruler of the Holy Roman Empire?,no,1.103935672,22,charlemagne,CHARLEMAGNE,C,1,C101,3,99,In which city is Heathrow Airport located?,N/A,0,73,london,LONDON,C,0,C97,3,100,Brown vs. Board of Education the landmark civil-rights case originated in what state?,N/A,0,150,kansas,KANSAS,C,0,C106,3,101,What is the longest river in South America?,N/A,0,116,amazon,AMAZON,C,0,C19,3,102,What is May's birthstone?,N/A,0,49,topaz,EMERALD,I,0,I59,3,103,What is the name of a female sheep?,N/A,0,48,ewe,EWE,C,0,C115,3,104,Who was the leader of the Argonauts?,yes,5.624073379,107,homer,JASON,I,1,I102,3,105,What is the capital of Russia?,N/A,0,90,moscow,MOSCOW,C,0,C20,3,106,What is the capital of Kentucky?,no,1.833779976,113,frankfurt,FRANKFORT,C,1,I147,3,107,What is the name of the constellation that looks like a flying horse?,N/A,0,39,pegasus,PEGASUS,C,0,C130,3,108,What's the 'Q' short for in Q-Tips?,no,1.542191681,47,quality,QUALITY,C,0,C63,3,109,What is the last name of the author who wrote 'The Old Man and the Sea'?,N/A,0,120,hemmingway,HEMINGWAY,C,0,I7,3,110,What is the last name of the man who first studied genetic inheritance in plants?,N/A,0,66,mendel,MENDEL,C,0,C149,3,111,What is the last name of the singer who recorded 'Heartbreak Hotel' and 'All Shook Up'?,no,1.361485651,92,presley,PRESLEY,C,0,C125,3,112,What is the name of the American who starred in the 1936 Olympics?,yes,1.773472967,58,owens,OWENS,C,0,C114,3,113,What company invented the microprocessor in 1971?,N/A,0,140,ibm,INTEL,I,0,I91,3,114,What is the last name of the man who supposedly killed Jesse James?,no,1.572513642,40,ford,FORD,C,0,C43,3,115,What is the last name of the second U.S. president?,N/A,0,114,adams,ADAMS,C,0,C99,3,116,What is the last name of the president who is on the far right when you gaze at Mount Rushmore?,N/A,0,108,roosevelt,LINCOLN,I,0,I31,3,117,What was the capital of Czechoslovakia?,N/A,0,19,prague,PRAGUE,C,0,C131,3,118,What staple crop does half the world's population depend on?,N/A,0,93,rice,RICE,C,0,C70,3,119,What is the name of the mansion in Virginia that was Thomas Jefferson's home?,N/A,0,46,monticello,MONTICELLO,C,0,C3,3,120,What is the last name of the author who wrote Brothers Karamazov?,N/A,0,24,tolstoy,DOSTOEVSKY,I,0,I54,3,121,What is the name of the island on which Napoleon was born?,N/A,0,30,corsica,CORSICA,C,0,C105,3,122,What virus killed two million people in 1967?,N/A,0,43,ebola,SMALLPOX,I,0,I64,3,123,What kind of poison did Socrates take at his execution?,N/A,0,100,hemlock,HEMLOCK,C,0,C25,3,124,What is the name of the project which developed the atomic bomb during World War II?,N/A,0,134,manhattan project,MANHATTAN,C,0,I77,3,125,What brand name drug is most often prescribed to treat attention deficit disorder?,N/A,0,5,ritalin,RITALIN,C,0,C35,3,126,What is the last name of the artist who is famous for producing images of Campbell's soup cans?,N/A,0,111,warhol,WARHOL,C,0,C148,3,127,What country's ships transported four million African slaves to Brazil?,N/A,0,102,portugal,PORTUGAL,C,0,C49,3,128,What is the last name of the criminal known as Scarface?,N/A,0,110,montana,CAPONE,I,0,I78,3,129,What country suffered the slaughter of half a million Tutsis and Hutus in 1994?,N/A,0,127,rwanda,RWANDA,C,0,C126,3,130,What is the last name of the artist who painted Guernica?,N/A,0,137,picasso,PICASSO,C,0,C4,3,131,What was the name of the first Apollo lunar module that landed the first man on the moon?,N/A,0,42,apollo ,EAGLE,I,0,I95,3,132,What is the last name of the discoverer of the vaccination for smallpox?,yes,1.728702952,1,jenkins,JENNER,I,0,I108,3,133,Who was The Friendly Ghost?,N/A,0,101,casper,CASPER,C,0,C22,3,134,Of which country is Budapest the capital?,no,1.312204218,51,hungary,HUNGARY,C,1,C38,3,135,What is the last name of the author who wrote Brave New World?,no,1.587915534,136,axwell,HUXLEY,I,0,I45,3,136,What is the last name of the actress who received the Best Actress Award for the movie 'Mary Poppins'?,no,1.732546434,104,andrews,ANDREWS,C,0,C12,3,137,What drug was named after the Greek god of dreams?,yes,2.133867611,99,morphine,MORPHINE,C,0,C15,3,138,What is the last name of the male star of the movie Casablanca?,N/A,0,64,bogart,BOGART,C,0,C37,3,139,What is the last name of the boy in the book Treasure Island?,no,1.724919156,83,hawkins,HAWKINS,C,0,C137,3,140,What liquor packs the punch in an Aztec Punch?,no,1.758984238,41,tequila,TEQUILA,C,0,C58,3,141,What's the northernmost Baltic republic?,N/A,0,79,estonia,ESTONIA,C,0,C140,3,142,What country was formerly known as the Belgian Congo?,N/A,0,63,democratic republic of the congo,ZAIRE,I,0,I92,3,143,What is the last name of the man who showed that lightning is electricity?,N/A,0,109,franklin,FRANKLIN,C,0,C127,3,144,What is the name of Socrates' most famous student?,N/A,0,59,plato,PLATO,C,0,C107,3,145,What is the last name of the first person to set foot on the moon?,N/A,0,3,armstrong,ARMSTRONG,C,0,C24,3,146,What is the capital of Jamaica?,N/A,0,35,kingston,KINGSTON,C,0,C73,3,147,What country has the ancient ruins of Machu Picchu?,N/A,0,85,peru,PERU,C,0,C32,3,148,What is the capital of Bulgaria?,N/A,0,139,sofia,SOPHIA,I,0,I52,3,149,What is the capital of Wyoming?,N/A,0,37,cheyenne,CHEYENNE,C,0,C134,3,150,What country's civil war was described as a 'rehearsal for World War II'?,N/A,0,8,spain,SPAIN,C,0,C145,4,1,What is the last name of the man who invented dynamite?,no,1.598207844,85,nobel,NOBEL,C,0,C106,4,2,What is the longest river in South America?,yes,2.401232152,93,amazon,AMAZON,C,0,C86,4,3,What nuts are used in marzipan? ,no,2.100849943,116,almonds,ALMONDS,C,0,C95,4,4,What is the last name of the discoverer of the vaccination for smallpox?,yes,2.783787022,115,,JENNER,I,0,I41,4,5,What is the name of the furry animal that attacks cobra snakes?,N/A,0,44,mongoose,MONGOOSE,C,0,C116,4,6,What is the last name of the person who defined 'The Beat Generation'?,N/A,0,94,jackson,KEROUAC,I,0,I74,4,7,In which sport does a rider on horseback hit a ball with a mallet?,N/A,0,27,polo,POLO,C,0,C140,4,8,What country was formerly known as the Belgian Congo?,N/A,0,139,democratic republic of congo,ZAIRE,I,0,I30,4,9,What is the name of the organ that produces insulin?,N/A,0,118,pancreas,PANCREAS,C,0,C51,4,10,Who was the first ruler of the Holy Roman Empire?,yes,1.594927956,107,augustine,CHARLEMAGNE,I,0,I7,4,11,What is the last name of the man who first studied genetic inheritance in plants?,N/A,0,99,mendel,MENDEL,C,0,C27,4,12,What is the name of the submarine in Jules Vernes's 20000 Leagues under the Sea?,no,1.993121781,41,nautilus,NAUTILUS,C,0,C87,4,13,What is the more common name for a mandrill?,no,2.278230453,125,baboon,BABOON,C,0,C18,4,14,What is the capital of Delaware?,N/A,0,74,wilmington,DOVER,I,0,I138,4,15,What is the largest city in Canada?,N/A,0,135,toronto,TORONTO,C,0,C4,4,16,What was the name of the first Apollo lunar module that landed the first man on the moon?,N/A,0,84,apollo ,EAGLE,I,0,I120,4,17,What city was Martin Luther King Jr. assassinated in?,N/A,0,53,memphis,MEMPHIS,C,0,C11,4,18,What is the last name of the Confederate general whose last words were 'Let us cross the river and rest in the shade'?,N/A,0,63,custer,JACKSON,I,0,I83,4,19,What is the name of the mountain range that separates Asia from Europe?,yes,2.081243326,62,ural,URAL,C,0,C10,4,20,What is the last name of the man who wrote Canterbury Tales?,N/A,0,25,chaucer,CHAUCER,C,0,C111,4,21,What is the name for a medical doctor who specializes in diseases of the skin?,N/A,0,113,dermatologist,DERMATOLOGIST,C,0,C132,4,22,What was the last name of the woman who designed and sewed the first American flag?,yes,1.94181602,32,crocker,ROSS,I,0,I50,4,23,The general named Hannibal was from what city?,no,2.740575711,61,carthage,CARTHAGE,C,0,C122,4,24,Which dynasty was in power throughout the 1500's in China?,yes,1.761175902,39,ming,MING,C,0,C113,4,25,What is the last name of the villainous captain in the story Peter Pan?,N/A,0,1,hook,HOOK,C,0,C69,4,26,What is the highest mountain in the U.S.?,N/A,0,16,denali,MCKINLEY,I,0,I47,4,27,In what ancient city were the Hanging Gardens located?,no,1.716637787,108,babylon,BABYLON,C,0,C71,4,28,What is the name of the British admiral who won the Battle of Trafalgar?,no,1.716762804,79,,NELSON,I,0,I62,4,29,In which city is Michelangelo's statue of David located?,no,3.939556216,8,florence,FLORENCE,C,1,C9,4,30,What is the last name of Batman's secret identity in the Batman comics?,N/A,0,42,wayne,WAYNE,C,0,C96,4,31,What is the last name of the person who has graced the most Sports Illustrated covers?,N/A,0,92,ali,JORDAN,I,0,I100,4,32,What kind of animal was befriended by the escaped slave Androcles in an Aesop Fable?,no,1.735099115,90,lion,LION,C,0,C37,4,33,What is the last name of the boy in the book Treasure Island?,no,1.820052151,137,,HAWKINS,I,0,I99,4,34,What is the last name of the president who is on the far right when you gaze at Mount Rushmore?,yes,1.696561155,2,lincoln,LINCOLN,C,1,C128,4,35,What is the name of a dried plum?,N/A,0,147,prune,PRUNE,C,0,C94,4,36,What were raced in Greek and Roman hippodromes? ,no,2.100807975,43,,HORSES,I,0,I35,4,37,What is the last name of the artist who is famous for producing images of Campbell's soup cans?,N/A,0,40,warhol,WARHOL,C,0,C147,4,38,What is the name of the constellation that looks like a flying horse?,N/A,0,129,pegasus,PEGASUS,C,0,C65,4,39,Who was the most famous Greek doctor?,N/A,0,86,hippocrates,HIPPOCRATES,C,0,C8,4,40,What is the unit of electrical power that refers to the current of one ampere at one volt?,no,1.403077148,105,watt,WATT,C,1,C85,4,41,What animals travel in pods? ,no,2.769539195,21,whales,WHALES,C,0,C44,4,42,What is the last name of the author of Little Women?,yes,2.052304603,132,,ALCOTT,I,0,I49,4,43,What is the last name of the criminal known as Scarface?,no,1.656644238,60,capone,CAPONE,C,0,C60,4,44,What is the name of the unit of measure that refers to a six-foot depth of water?,no,3.322967108,140,fathom,FATHOM,C,0,C80,4,45,What is the capital of Chile?,yes,1.784650968,101,santiago,SANTIAGO,C,0,C32,4,46,What is the capital of Bulgaria?,yes,1.565691201,59,,SOPHIA,I,0,I91,4,47,What is the last name of the man who supposedly killed Jesse James?,yes,4.057678589,100,ford,FORD,C,1,C34,4,48,What is the name of the avenue that immediately follows Atlantic Avenue in the game of Monopoly?,no,1.632821002,145,venitor,VENTNOR,I,0,I22,4,49,Of which country is Budapest the capital?,N/A,0,133,hungary,HUNGARY,C,0,C108,4,50,Who was The Friendly Ghost?,N/A,0,97,casper,CASPER,C,0,C88,4,51,What igneous rock makes up the bulk of Devils Tower?,no,1.888313567,87,basalt,BASALT,C,0,C1,4,52,What is the name of the palace in London in which the monarch of England resides?,N/A,0,64,buckingham,BUCKINGHAM,C,0,C114,4,53,What company invented the microprocessor in 1971?,N/A,0,72,ibm,INTEL,I,0,I110,4,54,What is the capital of Denmark?,N/A,0,11,coppenhagen,COPENHAGEN,C,0,I148,4,55,What country's ships transported four million African slaves to Brazil?,no,1.38152857,103,portugal,PORTUGAL,C,1,C13,4,56,What is the name of Batman's butler?,N/A,0,31,alfred,ALFRED,C,0,C121,4,57,What is the name for the astronomical bodies that enter the earth's atmosphere?,no,1.577273164,131,meteors,METEORS,C,0,C58,4,58,What's the northernmost Baltic republic?,no,1.747963539,56,estonia,ESTONIA,C,0,C130,4,59,What's the 'Q' short for in Q-Tips?,no,1.648199402,66,quality,QUALITY,C,0,C12,4,60,What drug was named after the Greek god of dreams?,no,1.615983528,45,morphine,MORPHINE,C,0,C63,4,61,What is the last name of the author who wrote 'The Old Man and the Sea'?,yes,4.16834134,126,hemingway,HEMINGWAY,C,1,C119,4,62,What is the name of the ship that carried the pilgrims to America in 1620?,yes,1.870767673,14,mayflower,MAYFLOWER,C,0,C133,4,63,What nation signed away a fourth of its European land in a 1918 Treaty?,yes,3.537584446,134,russia,RUSSIA,C,1,C82,4,64,What is the last name of the Russian novelist Teddy Roosevelt called 'a sexual and moral pervert'?,no,2.364463268,102,tolstoy,TOLSTOY,C,0,C101,4,65,In which city is Heathrow Airport located?,N/A,0,109,london,LONDON,C,0,C125,4,66,What is the name of the American who starred in the 1936 Olympics?,yes,1.793193479,78,owens,OWENS,C,0,C67,4,67,What is the last name of the man who wrote the Star Spangled Banner?,yes,1.706808294,20,key,KEY,C,0,C112,4,68,What is the first book of the Old Testament?,no,1.694104415,120,genesis,GENESIS,C,0,C19,4,69,What is May's birthstone?,no,2.226258931,47,emerald,EMERALD,C,0,C40,4,70,What's the largest gland in the human body?,no,2.106000226,89,skin,LIVER,I,0,I29,4,71,What is the last name of the man who assassinated President John Kennedy?,no,1.494130706,122,oswald,OSWALD,C,1,C131,4,72,What staple crop does half the world's population depend on?,N/A,0,26,oil,RICE,I,0,I76,4,73,What is the last name of the man who rode horseback in 1775 to warn that the British were coming?,yes,2.24624086,54,revere,REVERE,C,0,C139,4,74,In which country is Angel Falls located?,no,1.898998306,4,venezuela,VENEZUELA,C,0,C5,4,75,What was the name of the zeppelin that exploded in Lakehurst N.J. in 1937?,yes,1.80349473,149,hidenburg,HINDENBURG,C,0,I73,4,76,What country has the ancient ruins of Machu Picchu?,N/A,0,34,peru,PERU,C,0,C17,4,77,What is the last name of the author who wrote Oliver Twist?,N/A,0,10,dickens,DICKENS,C,0,C98,4,78,Of which country is Nairobi the capital?,N/A,0,112,nigeria,KENYA,I,0,I68,4,79,What Peanuts character clings to a security blanket?,no,1.914045557,136,linus,LINUS,C,0,C93,4,80,What island is the largest in the world excluding Australia?,N/A,0,106,greenland,GREENLAND,C,0,C137,4,81,What liquor packs the punch in an Aztec Punch?,no,1.682327884,124,tequilla,TEQUILA,C,0,I52,4,82,What is the capital of Wyoming?,yes,2.12560584,12,cheyenne,CHEYENNE,C,0,C72,4,83,What colorless gas is essential in the production of fertilizers and light bulbs?,yes,2.097006792,76,nitrogen,NITROGEN,C,0,C81,4,84,In what country is the Dalai Lama's palace?,N/A,0,69,tibet,TIBET,C,0,C16,4,85,What is the last name of the person who always ended her PBS cooking shows with 'Bon appetit'?,yes,1.585205166,150,child,CHILD,C,0,C24,4,86,What is the capital of Jamaica?,N/A,0,55,kingston,KINGSTON,C,0,C3,4,87,What is the last name of the author who wrote Brothers Karamazov?,no,1.641198718,3,tsovtsky,DOSTOEVSKY,I,0,I39,4,88,What country's capital is Tripoli?,N/A,0,80,tunisia,LIBYA,I,0,I104,4,89,What is the name of the process by which plants make their food?,N/A,0,146,photosynth,PHOTOSYNTHESIS,I,0,I64,4,90,What kind of poison did Socrates take at his execution?,no,1.341904462,6,hemlock,HEMLOCK,C,1,C126,4,91,What is the last name of the artist who painted Guernica?,N/A,0,148,picasso,PICASSO,C,0,C135,4,92,What was the name of the mythological creature with the head of a woman and the body of a lion that killed all those unable to solve its riddle?,yes,1.776961933,7,sphinx,SPHINX,C,0,C75,4,93,What is the world's largest snake?,N/A,0,117,anaconda,PYTHON,I,0,I25,4,94,What is the name of the project which developed the atomic bomb during World War II?,N/A,0,23,manhattan,MANHATTAN,C,0,C36,4,95,What sitcom received a record 117 Emmy nominations?,yes,2.217510805,46,cheers,CHEERS,C,0,C103,4,96,What is the most populous country in Africa?,N/A,0,95,south africa,NIGERIA,I,0,I105,4,97,What virus killed two million people in 1967?,yes,1.804152266,51,smallpox,SMALLPOX,C,0,C26,4,98,What was the name of the Union Ironclad ship that fought the Confederate ironclad Merrimack?,no,1.927397588,9,,MONITOR,I,0,I48,4,99,What is the name of the man who assassinated Abraham Lincoln?,yes,1.683266871,82,booth,BOOTH,C,0,C21,4,100,What is the last name of the first U.S. President to die in office?,no,1.581084117,33,harrison,HARRISON,C,0,C77,4,101,What brand name drug is most often prescribed to treat attention deficit disorder?,N/A,0,19,adderall,RITALIN,I,1,I136,4,102,According to the FDA what's the only fish that produces real caviar?,no,1.70611467,37,,STURGEON,I,0,I59,4,103,What is the name of a female sheep?,N/A,0,29,lamb,EWE,I,0,I115,4,104,Who was the leader of the Argonauts?,no,1.774443145,52,jason,JASON,C,0,C31,4,105,What was the capital of Czechoslovakia?,no,1.664889589,65,prague,PRAGUE,C,0,C45,4,106,What is the last name of the actress who received the Best Actress Award for the movie 'Mary Poppins'?,N/A,0,49,andrews,ANDREWS,C,0,C46,4,107,In what European city is the Parthenon located?,no,1.150765302,88,rome,ATHENS,I,1,I149,4,108,What is the last name of the singer who recorded 'Heartbreak Hotel' and 'All Shook Up'?,yes,2.581331516,38,presley,PRESLEY,C,0,C109,4,109,What is the name of the kind of cat that spoke to Alice in the story Alice's adventures in Wonderland?,N/A,0,67,cheshire,CHESHIRE,C,0,C102,4,110,What is the capital of Russia?,N/A,0,83,moscow,MOSCOW,C,0,C0,4,111,What is the name of the river that runs through Rome?,no,2.333466549,128,tiber,TIBER,C,0,C43,4,112,What is the last name of the second U.S. president?,N/A,0,143,adams,ADAMS,C,0,C53,4,113,What is the northernmost country in continental South America?,no,1.293331464,5,colombia,COLOMBIA,C,1,C15,4,114,What is the last name of the male star of the movie Casablanca?,N/A,0,68,bogart,BOGART,C,0,C134,4,115,What country's civil war was described as a 'rehearsal for World War II'?,no,3.589672228,50,spain,SPAIN,C,0,C70,4,116,What is the name of the mansion in Virginia that was Thomas Jefferson's home?,N/A,0,130,monticello,MONTICELLO,C,0,C42,4,117,In addition to the Kentucky Derby and the Belmont Stakes what horse race comprises the Triple Crown?,no,1.660087863,114,,PREAKNESS,I,0,I89,4,118,What is the last name of the renowned English author who had been a Polish sailor?,no,1.655588985,81,,CONRAD,I,0,I56,4,119,What is the last name of the commander who lost the battle of the Little Bighorn River?,yes,2.233899491,73,custer,CUSTER,C,0,C66,4,120,Over which river is the George Washington Bridge?,yes,2.529115764,75,hudson,HUDSON,C,0,C55,4,121,What is the last name of the scientist who discovered radium?,no,2.276790806,70,curie,CURIE,C,0,C92,4,122,What is the last name of the man who showed that lightning is electricity?,N/A,0,30,franklin,FRANKLIN,C,0,C79,4,123,What spice do chefs pay the most for?,no,1.653955162,144,saffron,SAFFRON,C,0,C54,4,124,What is the name of the island on which Napoleon was born?,no,1.778930183,35,corsica,CORSICA,C,0,C107,4,125,What is the last name of the first person to set foot on the moon?,N/A,0,77,armstrong,ARMSTRONG,C,0,C57,4,126,What is the last name of the man who invented the phonograph?,no,1.683084924,58,edison,EDISON,C,0,C23,4,127,What country gave the world the word 'geyser' for a hot spring?,no,1.568847295,22,chile,ICELAND,I,0,I14,4,128,Who was the title character in 'The Merchant of Venice'?,yes,1.890972639,119,antonio,ANTONIO,C,0,C84,4,129,What's heaven to fallen Norse warriors?,no,1.739232364,18,valhalla,VALHALLA,C,0,C146,4,130,What country joins Central America to South America?,yes,2.354090826,36,panama,PANAMA,C,0,C97,4,131,Brown vs. Board of Education the landmark civil-rights case originated in what state?,yes,1.706658135,28,kansas,KANSAS,C,0,C143,4,132,What is the Taj Majal made of?,N/A,0,98,marble,MARBLE,C,0,C90,4,133,What Old Testament patriarch is mentioned in the Bible a record 1005 times?,no,2.279677212,110,genesis,DAVID,I,0,I141,4,134,What is the name of the captain of the Pequod in the book Moby Dick?,N/A,0,121,ishmael,AHAB,I,0,I38,4,135,What is the last name of the author who wrote Brave New World?,N/A,0,111,welles,HUXLEY,I,0,I129,4,136,What was Cinderella's coach made from?,N/A,0,13,pumpkin,PUMPKIN,C,0,C78,4,137,What country suffered the slaughter of half a million Tutsis and Hutus in 1994?,N/A,0,48,rwanda,RWANDA,C,0,C33,4,138,What is the name of the crime in which a person purposely betrays their country?,N/A,0,138,traitor,TREASON,I,0,I117,4,139,What human organ (or organs) does a nephrologist treat?,N/A,0,24,kidneys,KIDNEY,C,0,I127,4,140,What is the name of Socrates' most famous student?,N/A,0,141,aristotle,PLATO,I,0,I124,4,141,What major city is on an island in the St. Lawrence River?,no,1.984077713,15,montreal,MONTREAL,C,0,C142,4,142,Which big cat usually carries its dead prey up into a tree to eat it?,no,1.159330328,127,leopard,LEOPARD,C,1,C61,4,143,What is the last name of the author of the James Bond novels?,N/A,0,91,flemming,FLEMING,C,0,I123,4,144,What is the last name of the man who was president directly after James Madison?,yes,1.965555735,71,monroe,MONROE,C,0,C20,4,145,What is the capital of Kentucky?,N/A,0,142,louisville,FRANKFORT,I,0,I2,4,146,What is the name of the collar bone?,N/A,0,123,clavicle,CLAVICLE,C,0,C118,4,147,What is the last name of the man who began the Protestant reformation in Germany?,N/A,0,57,luther,LUTHER,C,0,C6,4,148,In the bible whose name was changed to Israel?,no,1.792346368,96,jacob,JACOB,C,0,C28,4,149,What is the last name of the author of the book 1984?,N/A,0,17,welles,ORWELL,I,0,I144,4,150,What is the last name of the composer who wrote the opera 'Don Giovanni'?,no,1.659881295,104,mozart,MOZART,C,0,C47,5,1,In what ancient city were the Hanging Gardens located?,yes,2.107561676,147,babylon,BABYLON,C,0,C118,5,2,What is the last name of the man who began the Protestant reformation in Germany?,no,1.713232936,42,,LUTHER,I,0,I92,5,3,What is the last name of the man who showed that lightning is electricity?,no,8.049298897,99,,FRANKLIN,I,0,I122,5,4,Which dynasty was in power throughout the 1500's in China?,no,0.542437858,68,ming,MING,C,0,C31,5,5,What was the capital of Czechoslovakia?,no,1.763156559,3,prague,PRAGUE,C,0,C127,5,6,What is the name of Socrates' most famous student?,N/A,0,59,,PLATO,I,0,I39,5,7,What country's capital is Tripoli?,no,1.660636279,6,,LIBYA,I,0,I48,5,8,What is the name of the man who assassinated Abraham Lincoln?,no,1.722517964,120,,BOOTH,I,0,I11,5,9,What is the last name of the Confederate general whose last words were 'Let us cross the river and rest in the shade'?,no,1.734671325,100,,JACKSON,I,0,I89,5,10,What is the last name of the renowned English author who had been a Polish sailor?,no,1.294650985,131,,CONRAD,I,0,I131,5,11,What staple crop does half the world's population depend on?,N/A,0,10,rice,RICE,C,0,C37,5,12,What is the last name of the boy in the book Treasure Island?,no,1.46750612,77,,HAWKINS,I,0,I69,5,13,What is the highest mountain in the U.S.?,no,1.553857957,150,,MCKINLEY,I,0,I81,5,14,In what country is the Dalai Lama's palace?,N/A,0,40,tibet,TIBET,C,0,C55,5,15,What is the last name of the scientist who discovered radium?,N/A,0,24,curie,CURIE,C,0,C3,5,16,What is the last name of the author who wrote Brothers Karamazov?,no,1.312313338,86,,DOSTOEVSKY,I,0,I38,5,17,What is the last name of the author who wrote Brave New World?,no,1.712824199,92,,HUXLEY,I,0,I25,5,18,What is the name of the project which developed the atomic bomb during World War II?,no,1.39692664,44,manhattan,MANHATTAN,C,0,C53,5,19,What is the northernmost country in continental South America?,N/A,0,96,west indies,COLOMBIA,I,0,I146,5,20,What country joins Central America to South America?,N/A,0,33,panama,PANAMA,C,0,C85,5,21,What animals travel in pods? ,N/A,0,35,tadepol,WHALES,I,0,I68,5,22,What Peanuts character clings to a security blanket?,no,0.82143258,45,linus,LINUS,C,0,C113,5,23,What is the last name of the villainous captain in the story Peter Pan?,N/A,0,143,cook,HOOK,C,0,I0,5,24,What is the name of the river that runs through Rome?,no,0.407150484,34,,TIBER,I,0,I120,5,25,What city was Martin Luther King Jr. assassinated in?,N/A,0,52,new yokr,MEMPHIS,I,0,I149,5,26,What is the last name of the singer who recorded 'Heartbreak Hotel' and 'All Shook Up'?,no,0.458476197,118,,PRESLEY,I,0,I103,5,27,What is the most populous country in Africa?,no,2.403350754,62,nigeria,NIGERIA,C,0,C97,5,28,Brown vs. Board of Education the landmark civil-rights case originated in what state?,no,1.454557591,50,,KANSAS,I,0,I4,5,29,What was the name of the first Apollo lunar module that landed the first man on the moon?,N/A,0,31,apollo ,EAGLE,I,0,I52,5,30,What is the capital of Wyoming?,N/A,0,28,vermont,CHEYENNE,I,0,I111,5,31,What is the name for a medical doctor who specializes in diseases of the skin?,no,1.562178818,111,dermatologist,DERMATOLOGIST,C,0,C60,5,32,What is the name of the unit of measure that refers to a six-foot depth of water?,no,2.010249892,144,fathom,FATHOM,C,0,C56,5,33,What is the last name of the commander who lost the battle of the Little Bighorn River?,no,0.358288031,78,,CUSTER,I,0,I75,5,34,What is the world's largest snake?,N/A,0,127,anaconda,PYTHON,I,0,I43,5,35,What is the last name of the second U.S. president?,no,0.331912551,107,adma,ADAMS,I,0,I62,5,36,In which city is Michelangelo's statue of David located?,no,1.680264874,5,,FLORENCE,I,0,I2,5,37,What is the name of the collar bone?,no,1.594383865,97,,CLAVICLE,I,0,I58,5,38,What's the northernmost Baltic republic?,no,1.041811669,30,estonia,ESTONIA,C,0,C134,5,39,What country's civil war was described as a 'rehearsal for World War II'?,no,1.546881174,85,spain,SPAIN,C,0,C98,5,40,Of which country is Nairobi the capital?,N/A,0,22,kenya,KENYA,C,0,C107,5,41,What is the last name of the first person to set foot on the moon?,N/A,0,46,armstrong,ARMSTRONG,C,0,C74,5,42,In which sport does a rider on horseback hit a ball with a mallet?,no,0.888649261,136,polo,POLO,C,0,C65,5,43,Who was the most famous Greek doctor?,no,1.569472493,61,,HIPPOCRATES,I,0,I124,5,44,What major city is on an island in the St. Lawrence River?,no,1.208268859,20,,MONTREAL,I,0,I128,5,45,What is the name of a dried plum?,no,3.037140885,88,prune,PRUNE,C,0,C28,5,46,What is the last name of the author of the book 1984?,no,1.37792055,93,,ORWELL,I,0,I42,5,47,In addition to the Kentucky Derby and the Belmont Stakes what horse race comprises the Triple Crown?,N/A,0,26,derby,PREAKNESS,I,0,I16,5,48,What is the last name of the person who always ended her PBS cooking shows with 'Bon appetit'?,N/A,0,8,hell kitchen,CHILD,I,0,I94,5,49,What were raced in Greek and Roman hippodromes? ,no,0.548700226,12,horses,HORSES,C,0,C145,5,50,What is the last name of the man who invented dynamite?,no,0.860580186,149,,NOBEL,I,0,I18,5,51,What is the capital of Delaware?,N/A,0,98,louisiana,DOVER,I,0,I129,5,52,What was Cinderella's coach made from?,no,0.408808962,14,pumpkin,PUMPKIN,C,0,C32,5,53,What is the capital of Bulgaria?,no,0.277019603,116,,SOPHIA,I,0,I41,5,54,What is the name of the furry animal that attacks cobra snakes?,N/A,0,108,mangoose,MONGOOSE,C,0,I19,5,55,What is May's birthstone?,no,0.655856624,80,emerald,EMERALD,C,0,C140,5,56,What country was formerly known as the Belgian Congo?,N/A,0,110,congo,ZAIRE,I,0,I40,5,57,What's the largest gland in the human body?,N/A,0,90,picturial,LIVER,I,0,I104,5,58,What is the name of the process by which plants make their food?,N/A,0,54,photosynthesis,PHOTOSYNTHESIS,C,0,C108,5,59,Who was The Friendly Ghost?,no,0.310751471,36,casper,CASPER,C,0,C148,5,60,What country's ships transported four million African slaves to Brazil?,no,0.366901123,65,portugal,PORTUGAL,C,0,C136,5,61,According to the FDA what's the only fish that produces real caviar?,no,0.272155666,115,,STURGEON,I,0,I70,5,62,What is the name of the mansion in Virginia that was Thomas Jefferson's home?,no,0.298750258,67,,MONTICELLO,I,0,I7,5,63,What is the last name of the man who first studied genetic inheritance in plants?,no,0.251989855,19,,MENDEL,I,0,I34,5,64,What is the name of the avenue that immediately follows Atlantic Avenue in the game of Monopoly?,no,1.37190391,113,,VENTNOR,I,0,I71,5,65,What is the name of the British admiral who won the Battle of Trafalgar?,no,0.865544449,55,,NELSON,I,0,I36,5,66,What sitcom received a record 117 Emmy nominations?,no,0.368739351,145,cheers,CHEERS,C,0,C130,5,67,What's the 'Q' short for in Q-Tips?,no,1.220667941,73,quality,QUALITY,C,0,C12,5,68,What drug was named after the Greek god of dreams?,no,0.355297133,141,morphine,MORPHINE,C,0,C100,5,69,What kind of animal was befriended by the escaped slave Androcles in an Aesop Fable?,no,0.473873926,37,lion,LION,C,0,C30,5,70,What is the name of the organ that produces insulin?,no,2.191884657,126,pancreas,PANCREAS,C,0,C80,5,71,What is the capital of Chile?,N/A,0,94,peru,SANTIAGO,I,0,I45,5,72,What is the last name of the actress who received the Best Actress Award for the movie 'Mary Poppins'?,no,0.790526555,117,,ANDREWS,I,0,I49,5,73,What is the last name of the criminal known as Scarface?,no,0.666303393,83,,CAPONE,I,0,I57,5,74,What is the last name of the man who invented the phonograph?,no,2.07391849,2,jenner,EDISON,I,0,I110,5,75,What is the capital of Denmark?,N/A,0,125,copenhagen,COPENHAGEN,C,0,C29,5,76,What is the last name of the man who assassinated President John Kennedy?,no,0.811740594,41,oswald,OSWALD,C,0,C112,5,77,What is the first book of the Old Testament?,no,0.841701799,103,genesis,GENESIS,C,0,C24,5,78,What is the capital of Jamaica?,no,1.130143852,48,kingston,KINGSTON,C,0,C137,5,79,What liquor packs the punch in an Aztec Punch?,no,0.322174447,123,tequila,TEQUILA,C,0,C109,5,80,What is the name of the kind of cat that spoke to Alice in the story Alice's adventures in Wonderland?,no,0.290459711,13,,CHESHIRE,I,0,I10,5,81,What is the last name of the man who wrote Canterbury Tales?,no,0.294557586,133,,CHAUCER,I,0,I87,5,82,What is the more common name for a mandrill?,no,0.928471605,84,baboon,BABOON,C,0,C116,5,83,What is the last name of the person who defined 'The Beat Generation'?,no,0.357195023,4,,KEROUAC,I,0,I96,5,84,What is the last name of the person who has graced the most Sports Illustrated covers?,no,0.407657751,112,jordan,JORDAN,C,0,C79,5,85,What spice do chefs pay the most for?,no,2.129742499,72,saffron,SAFFRON,C,0,C9,5,86,What is the last name of Batman's secret identity in the Batman comics?,no,0.669383229,105,wayne,WAYNE,C,0,C126,5,87,What is the last name of the artist who painted Guernica?,no,0.335883379,95,piccaso,PICASSO,I,0,I27,5,88,What is the name of the submarine in Jules Vernes's 20000 Leagues under the Sea?,no,0.320907659,138,,NAUTILUS,I,0,I54,5,89,What is the name of the island on which Napoleon was born?,no,0.906573385,102,,CORSICA,I,0,I1,5,90,What is the name of the palace in London in which the monarch of England resides?,N/A,0,71,birmigham palace,BUCKINGHAM,I,0,I142,5,91,Which big cat usually carries its dead prey up into a tree to eat it?,N/A,0,128,leopard,LEOPARD,C,0,C17,5,92,What is the last name of the author who wrote Oliver Twist?,no,0.71731027,51,,DICKENS,I,0,I141,5,93,What is the name of the captain of the Pequod in the book Moby Dick?,no,0.279078823,43,,AHAB,I,0,I6,5,94,In the bible whose name was changed to Israel?,N/A,0,146,jerusalem,JACOB,I,0,I93,5,95,What island is the largest in the world excluding Australia?,N/A,0,139,antartica,GREENLAND,I,0,I132,5,96,What was the last name of the woman who designed and sewed the first American flag?,no,0.37867342,32,,ROSS,I,0,I35,5,97,What is the last name of the artist who is famous for producing images of Campbell's soup cans?,no,0.40540824,106,,WARHOL,I,0,I139,5,98,In which country is Angel Falls located?,no,0.327376768,135,venezuela,VENEZUELA,C,0,C26,5,99,What was the name of the Union Ironclad ship that fought the Confederate ironclad Merrimack?,no,0.30013274,89,,MONITOR,I,0,I144,5,100,What is the last name of the composer who wrote the opera 'Don Giovanni'?,no,0.313492,60,,MOZART,I,0,I125,5,101,What is the name of the American who starred in the 1936 Olympics?,N/A,0,15,owens,OWENS,C,0,C88,5,102,What igneous rock makes up the bulk of Devils Tower?,no,0.418694983,87,,BASALT,I,0,I8,5,103,What is the unit of electrical power that refers to the current of one ampere at one volt?,N/A,0,21,av,WATT,I,0,I61,5,104,What is the last name of the author of the James Bond novels?,no,0.540809699,148,,FLEMING,I,0,I78,5,105,What country suffered the slaughter of half a million Tutsis and Hutus in 1994?,no,0.28681838,56,rwanda,RWANDA,C,0,C21,5,106,What is the last name of the first U.S. President to die in office?,N/A,0,47,kennedy,HARRISON,I,0,I123,5,107,What is the last name of the man who was president directly after James Madison?,no,0.261914014,134,,MONROE,I,0,I99,5,108,What is the last name of the president who is on the far right when you gaze at Mount Rushmore?,no,1.422215338,74,lincoln,LINCOLN,C,0,C15,5,109,What is the last name of the male star of the movie Casablanca?,no,1.324656789,17,,BOGART,I,0,I33,5,110,What is the name of the crime in which a person purposely betrays their country?,no,0.068878242,137,treason,TREASON,C,0,C86,5,111,What nuts are used in marzipan? ,N/A,0,64,wallnuts,ALMONDS,I,0,I135,5,112,What was the name of the mythological creature with the head of a woman and the body of a lion that killed all those unable to solve its riddle?,no,2.092759897,91,spinx,SPHINX,C,0,I63,5,113,What is the last name of the author who wrote 'The Old Man and the Sea'?,no,0.332598917,101,,HEMINGWAY,I,0,I51,5,114,Who was the first ruler of the Holy Roman Empire?,no,0.657433261,11,,CHARLEMAGNE,I,0,I147,5,115,What is the name of the constellation that looks like a flying horse?,N/A,0,49,,PEGASUS,I,0,I5,5,116,What was the name of the zeppelin that exploded in Lakehurst N.J. in 1937?,no,0.97979201,29,,HINDENBURG,I,0,I73,5,117,What country has the ancient ruins of Machu Picchu?,N/A,0,39,mexico,PERU,I,0,I143,5,118,What is the Taj Majal made of?,N/A,0,104,marble,MARBLE,C,0,C133,5,119,What nation signed away a fourth of its European land in a 1918 Treaty?,N/A,0,82,germany,RUSSIA,I,0,I119,5,120,What is the name of the ship that carried the pilgrims to America in 1620?,no,0.269795995,9,,MAYFLOWER,I,0,I22,5,121,Of which country is Budapest the capital?,N/A,0,140,hungary,HUNGARY,C,0,C90,5,122,What Old Testament patriarch is mentioned in the Bible a record 1005 times?,no,0.410137552,16,david,DAVID,C,0,C105,5,123,What virus killed two million people in 1967?,no,0.330281099,58,smallpox,SMALLPOX,C,0,C121,5,124,What is the name for the astronomical bodies that enter the earth's atmosphere?,N/A,0,121,meteors,METEORS,C,0,C95,5,125,What is the last name of the discoverer of the vaccination for smallpox?,no,1.79052651,63,jenner,JENNER,C,0,C138,5,126,What is the largest city in Canada?,N/A,0,114,toronto,TORONTO,C,0,C82,5,127,What is the last name of the Russian novelist Teddy Roosevelt called 'a sexual and moral pervert'?,no,0.552086913,119,,TOLSTOY,I,0,I84,5,128,What's heaven to fallen Norse warriors?,no,0.386885369,23,,VALHALLA,I,0,I46,5,129,In what European city is the Parthenon located?,no,1.875375881,132,athens,ATHENS,C,0,C59,5,130,What is the name of a female sheep?,no,0.353214445,70,ewe,EWE,C,0,C14,5,131,Who was the title character in 'The Merchant of Venice'?,no,0.412511313,38,antonio,ANTONIO,C,0,C13,5,132,What is the name of Batman's butler?,no,1.102905453,75,alfreds,ALFRED,C,0,I101,5,133,In which city is Heathrow Airport located?,N/A,0,57,london,LONDON,C,0,C83,5,134,What is the name of the mountain range that separates Asia from Europe?,no,0.984586126,129,ural,URAL,C,0,C23,5,135,What country gave the world the word 'geyser' for a hot spring?,no,1.426586682,18,iceland,ICELAND,C,0,C114,5,136,What company invented the microprocessor in 1971?,N/A,0,109,intel,INTEL,C,0,C91,5,137,What is the last name of the man who supposedly killed Jesse James?,no,0.345447562,124,,FORD,I,0,I117,5,138,What human organ (or organs) does a nephrologist treat?,N/A,0,81,neurons,KIDNEY,I,0,I67,5,139,What is the last name of the man who wrote the Star Spangled Banner?,no,0.406475264,122,,KEY,I,0,I115,5,140,Who was the leader of the Argonauts?,no,0.32472846,69,,JASON,I,0,I76,5,141,What is the last name of the man who rode horseback in 1775 to warn that the British were coming?,no,0.320192336,7,,REVERE,I,0,I64,5,142,What kind of poison did Socrates take at his execution?,N/A,0,27,cynadie,HEMLOCK,I,0,I66,5,143,Over which river is the George Washington Bridge?,N/A,0,142,east river,HUDSON,I,0,I102,5,144,What is the capital of Russia?,N/A,0,130,moscow,MOSCOW,C,0,C20,5,145,What is the capital of Kentucky?,no,0.305647231,25,,FRANKFORT,I,0,I106,5,146,What is the longest river in South America?,no,1.31894092,53,amazon,AMAZON,C,0,C72,5,147,What colorless gas is essential in the production of fertilizers and light bulbs?,no,0.297954303,76,nitrogen,NITROGEN,C,0,C44,5,148,What is the last name of the author of Little Women?,no,0.366176928,66,,ALCOTT,I,0,I77,5,149,What brand name drug is most often prescribed to treat attention deficit disorder?,no,0.472019097,79,,RITALIN,I,0,I50,5,150,The general named Hannibal was from what city?,no,0.773234971,1,,CARTHAGE,I,0,I29,6,1,What is the last name of the man who assassinated President John Kennedy?,no,1.632605498,27,,OSWALD,I,0,I35,6,2,What is the last name of the artist who is famous for producing images of Campbell's soup cans?,N/A,0,19,warhol,WARHOL,C,0,C119,6,3,What is the name of the ship that carried the pilgrims to America in 1620?,N/A,0,108,mayflower,MAYFLOWER,C,0,C68,6,4,What Peanuts character clings to a security blanket?,N/A,0,64,linus,LINUS,C,0,C96,6,5,What is the last name of the person who has graced the most Sports Illustrated covers?,no,1.62226329,54,jordan,JORDAN,C,0,C146,6,6,What country joins Central America to South America?,yes,3.251170849,17,panama,PANAMA,C,0,C122,6,7,Which dynasty was in power throughout the 1500's in China?,yes,2.095284096,66,ming,MING,C,0,C61,6,8,What is the last name of the author of the James Bond novels?,no,1.633062448,149,,FLEMING,I,0,I74,6,9,In which sport does a rider on horseback hit a ball with a mallet?,no,3.187909914,94,polo,POLO,C,1,C54,6,10,What is the name of the island on which Napoleon was born?,yes,1.508714039,99,starts with a c,CORSICA,I,0,I40,6,11,What's the largest gland in the human body?,no,2.403789675,77,liver,LIVER,C,0,C128,6,12,What is the name of a dried plum?,N/A,0,65,prune,PRUNE,C,0,C24,6,13,What is the capital of Jamaica?,no,1.479858443,80,,KINGSTON,I,0,I92,6,14,What is the last name of the man who showed that lightning is electricity?,N/A,0,126,franklin,FRANKLIN,C,0,C91,6,15,What is the last name of the man who supposedly killed Jesse James?,no,1.632735978,35,,FORD,I,0,I46,6,16,In what European city is the Parthenon located?,yes,2.166650759,16,athens,ATHENS,C,0,C113,6,17,What is the last name of the villainous captain in the story Peter Pan?,N/A,0,69,hooke,HOOK,C,0,I120,6,18,What city was Martin Luther King Jr. assassinated in?,no,2.685940374,89,memphis,MEMPHIS,C,0,C56,6,19,What is the last name of the commander who lost the battle of the Little Bighorn River?,no,1.517543346,43,,CUSTER,I,0,I18,6,20,What is the capital of Delaware?,no,1.607988166,76,,DOVER,I,0,I121,6,21,What is the name for the astronomical bodies that enter the earth's atmosphere?,yes,2.019176312,70,meteorites,METEORS,C,0,I145,6,22,What is the last name of the man who invented dynamite?,yes,2.138907704,31,,NOBEL,I,0,I48,6,23,What is the name of the man who assassinated Abraham Lincoln?,no,1.775893469,145,,BOOTH,I,0,I138,6,24,What is the largest city in Canada?,N/A,0,133,vancouver,TORONTO,I,0,I140,6,25,What country was formerly known as the Belgian Congo?,no,1.543029227,123,starts with an r i think,ZAIRE,I,0,I19,6,26,What is May's birthstone?,no,1.124608987,8,emerald,EMERALD,C,1,C37,6,27,What is the last name of the boy in the book Treasure Island?,no,2.156284377,125,,HAWKINS,I,0,I30,6,28,What is the name of the organ that produces insulin?,N/A,0,138,liver,PANCREAS,I,0,I47,6,29,In what ancient city were the Hanging Gardens located?,yes,2.501825548,137,babylon,BABYLON,C,0,C82,6,30,What is the last name of the Russian novelist Teddy Roosevelt called 'a sexual and moral pervert'?,yes,3.603818916,117,tolstoy,TOLSTOY,C,0,C131,6,31,What staple crop does half the world's population depend on?,N/A,0,56,corn,RICE,I,0,I116,6,32,What is the last name of the person who defined 'The Beat Generation'?,no,1.806177179,75,,KEROUAC,I,0,I67,6,33,What is the last name of the man who wrote the Star Spangled Banner?,no,2.297934565,85,,KEY,I,0,I26,6,34,What was the name of the Union Ironclad ship that fought the Confederate ironclad Merrimack?,no,1.545084878,57,,MONITOR,I,0,I12,6,35,What drug was named after the Greek god of dreams?,N/A,0,107,morphine,MORPHINE,C,0,C134,6,36,What country's civil war was described as a 'rehearsal for World War II'?,N/A,0,40,france,SPAIN,I,0,I102,6,37,What is the capital of Russia?,no,1.452641371,102,moscow,MOSCOW,C,1,C109,6,38,What is the name of the kind of cat that spoke to Alice in the story Alice's adventures in Wonderland?,N/A,0,29,cheshire,CHESHIRE,C,0,C141,6,39,What is the name of the captain of the Pequod in the book Moby Dick?,no,3.12474269,130,,AHAB,I,0,I147,6,40,What is the name of the constellation that looks like a flying horse?,no,0.667547476,6,pegasus,PEGASUS,C,1,C15,6,41,What is the last name of the male star of the movie Casablanca?,no,1.683251922,44,,BOGART,I,0,I33,6,42,What is the name of the crime in which a person purposely betrays their country?,N/A,0,39,treason,TREASON,C,0,C63,6,43,What is the last name of the author who wrote 'The Old Man and the Sea'?,yes,1.805923528,49,hemingway,HEMINGWAY,C,0,C130,6,44,What's the 'Q' short for in Q-Tips?,no,1.425148369,95,quality,QUALITY,C,0,C13,6,45,What is the name of Batman's butler?,yes,1.713885369,116,,ALFRED,I,0,I88,6,46,What igneous rock makes up the bulk of Devils Tower?,no,1.621474152,150,,BASALT,I,0,I132,6,47,What was the last name of the woman who designed and sewed the first American flag?,no,1.588388567,90,,ROSS,I,0,I36,6,48,What sitcom received a record 117 Emmy nominations?,yes,2.445615343,132,cheers,CHEERS,C,0,C60,6,49,What is the name of the unit of measure that refers to a six-foot depth of water?,yes,2.042070112,87,fathom,FATHOM,C,0,C143,6,50,What is the Taj Majal made of?,no,2.475165636,127,marble,MARBLE,C,0,C112,6,51,What is the first book of the Old Testament?,N/A,0,98,genesis,GENESIS,C,0,C84,6,52,What's heaven to fallen Norse warriors?,no,1.706392642,2,,VALHALLA,I,0,I108,6,53,Who was The Friendly Ghost?,N/A,0,83,casper,CASPER,C,0,C144,6,54,What is the last name of the composer who wrote the opera 'Don Giovanni'?,yes,1.41474713,112,mozart,MOZART,C,0,C64,6,55,What kind of poison did Socrates take at his execution?,yes,2.145976703,46,hemlock,HEMLOCK,C,0,C136,6,56,According to the FDA what's the only fish that produces real caviar?,N/A,0,37,shark,STURGEON,I,0,I11,6,57,What is the last name of the Confederate general whose last words were 'Let us cross the river and rest in the shade'?,no,2.304912255,144,jackson,JACKSON,C,0,C137,6,58,What liquor packs the punch in an Aztec Punch?,no,1.802348454,82,tequila,TEQUILA,C,0,C34,6,59,What is the name of the avenue that immediately follows Atlantic Avenue in the game of Monopoly?,no,1.792326169,109,,VENTNOR,I,0,I14,6,60,Who was the title character in 'The Merchant of Venice'?,yes,2.491621302,147,,ANTONIO,I,0,I94,6,61,What were raced in Greek and Roman hippodromes? ,yes,2.754719072,26,horses,HORSES,C,0,C59,6,62,What is the name of a female sheep?,N/A,0,55,ewe,EWE,C,0,C69,6,63,What is the highest mountain in the U.S.?,no,2.997341376,100,not rainier ,MCKINLEY,I,1,I65,6,64,Who was the most famous Greek doctor?,yes,2.223005183,45,hippocrates,HIPPOCRATES,C,0,C0,6,65,What is the name of the river that runs through Rome?,yes,1.734095454,63,tibal,TIBER,I,0,I41,6,66,What is the name of the furry animal that attacks cobra snakes?,no,1.994320435,129,mongoose,MONGOOSE,C,0,C86,6,67,What nuts are used in marzipan? ,no,1.591123713,38,almonds,ALMONDS,C,0,C72,6,68,What colorless gas is essential in the production of fertilizers and light bulbs?,yes,3.403403448,74,nitrogen,NITROGEN,C,0,C10,6,69,What is the last name of the man who wrote Canterbury Tales?,no,1.671300672,11,chaucer,CHAUCER,C,0,C142,6,70,Which big cat usually carries its dead prey up into a tree to eat it?,N/A,0,9,cheetah,LEOPARD,I,0,I7,6,71,What is the last name of the man who first studied genetic inheritance in plants?,N/A,0,5,mendel,MENDEL,C,0,C117,6,72,What human organ (or organs) does a nephrologist treat?,no,1.689661541,52,kidneys,KIDNEY,C,0,I51,6,73,Who was the first ruler of the Holy Roman Empire?,N/A,0,111,caesar,CHARLEMAGNE,I,0,I43,6,74,What is the last name of the second U.S. president?,no,0.972510395,78,adams,ADAMS,C,1,C97,6,75,Brown vs. Board of Education the landmark civil-rights case originated in what state?,no,0.684239386,79,kansas,KANSAS,C,1,C25,6,76,What is the name of the project which developed the atomic bomb during World War II?,N/A,0,18,manhattan,MANHATTAN,C,0,C98,6,77,Of which country is Nairobi the capital?,yes,2.445568062,34,kenya,KENYA,C,0,C81,6,78,In what country is the Dalai Lama's palace?,no,1.240772107,118,tibet,TIBET,C,1,C93,6,79,What island is the largest in the world excluding Australia?,no,1.455222676,50,greenland,GREENLAND,C,0,C73,6,80,What country has the ancient ruins of Machu Picchu?,yes,1.907280066,105,peru,PERU,C,0,C126,6,81,What is the last name of the artist who painted Guernica?,no,1.609061461,58,picasso,PICASSO,C,0,C6,6,82,In the bible whose name was changed to Israel?,no,1.694992903,7,jacob,JACOB,C,0,C149,6,83,What is the last name of the singer who recorded 'Heartbreak Hotel' and 'All Shook Up'?,no,2.025726891,12,presley,PRESLEY,C,0,C78,6,84,What country suffered the slaughter of half a million Tutsis and Hutus in 1994?,yes,1.731115538,146,rwanda,RWANDA,C,0,C50,6,85,The general named Hannibal was from what city?,no,1.863109127,93,,CARTHAGE,I,0,I135,6,86,What was the name of the mythological creature with the head of a woman and the body of a lion that killed all those unable to solve its riddle?,N/A,0,13,sphinx,SPHINX,C,0,C20,6,87,What is the capital of Kentucky?,yes,3.118999905,61,starts w,FRANKFORT,I,0,I21,6,88,What is the last name of the first U.S. President to die in office?,no,1.434203789,140,,HARRISON,I,0,I62,6,89,In which city is Michelangelo's statue of David located?,yes,1.897204446,21,florence,FLORENCE,C,0,C114,6,90,What company invented the microprocessor in 1971?,yes,2.541612225,41,intel,INTEL,C,0,C38,6,91,What is the last name of the author who wrote Brave New World?,no,1.877311864,81,,HUXLEY,I,0,I80,6,92,What is the capital of Chile?,N/A,0,86,santiago,SANTIAGO,C,0,C66,6,93,Over which river is the George Washington Bridge?,N/A,0,48,hudson,HUDSON,C,0,C22,6,94,Of which country is Budapest the capital?,N/A,0,67,hungary,HUNGARY,C,0,C17,6,95,What is the last name of the author who wrote Oliver Twist?,N/A,0,59,dickens,DICKENS,C,0,C118,6,96,What is the last name of the man who began the Protestant reformation in Germany?,yes,2.205843973,128,luther,LUTHER,C,0,C115,6,97,Who was the leader of the Argonauts?,no,3.996244554,73,jason,JASON,C,1,C8,6,98,What is the unit of electrical power that refers to the current of one ampere at one volt?,yes,2.158817804,68,watt,WATT,C,0,C58,6,99,What's the northernmost Baltic republic?,no,2.011159521,101,,ESTONIA,I,0,I90,6,100,What Old Testament patriarch is mentioned in the Bible a record 1005 times?,no,2.045317162,33,david,DAVID,C,0,C4,6,101,What was the name of the first Apollo lunar module that landed the first man on the moon?,N/A,0,134,1,EAGLE,I,0,I83,6,102,What is the name of the mountain range that separates Asia from Europe?,yes,1.954678167,71,ural,URAL,C,0,C79,6,103,What spice do chefs pay the most for?,N/A,0,10,pepper,SAFFRON,I,0,I71,6,104,What is the name of the British admiral who won the Battle of Trafalgar?,no,1.662543141,25,,NELSON,I,0,I9,6,105,What is the last name of Batman's secret identity in the Batman comics?,no,1.655756955,20,wayne,WAYNE,C,0,C77,6,106,What brand name drug is most often prescribed to treat attention deficit disorder?,no,1.947204491,62,ritalin ,RITALIN,C,0,I89,6,107,What is the last name of the renowned English author who had been a Polish sailor?,no,1.740202631,104,ahhh i read hi,CONRAD,I,0,I129,6,108,What was Cinderella's coach made from?,N/A,0,53,pumpkin,PUMPKIN,C,0,C148,6,109,What country's ships transported four million African slaves to Brazil?,yes,1.871791028,96,portugal,PORTUGAL,C,0,C104,6,110,What is the name of the process by which plants make their food?,yes,5.153855616,142,photosynthesis,PHOTOSYNTHESIS,C,1,C57,6,111,What is the last name of the man who invented the phonograph?,no,3.926909213,119,edison,EDISON,C,1,C75,6,112,What is the world's largest snake?,N/A,0,36,python,PYTHON,C,0,C101,6,113,In which city is Heathrow Airport located?,no,1.763347441,120,london,LONDON,C,0,C2,6,114,What is the name of the collar bone?,no,1.47976722,97,,CLAVICLE,I,0,I27,6,115,What is the name of the submarine in Jules Vernes's 20000 Leagues under the Sea?,no,1.702155967,72,,NAUTILUS,I,0,I52,6,116,What is the capital of Wyoming?,no,1.625054423,92,cheyenne,CHEYENNE,C,0,C124,6,117,What major city is on an island in the St. Lawrence River?,no,2.044307864,131,,MONTREAL,I,0,I39,6,118,What country's capital is Tripoli?,no,1.854917994,22,,LIBYA,I,0,I111,6,119,What is the name for a medical doctor who specializes in diseases of the skin?,N/A,0,113,dermatologist,DERMATOLOGIST,C,0,C45,6,120,What is the last name of the actress who received the Best Actress Award for the movie 'Mary Poppins'?,N/A,0,106,roberts,ANDREWS,I,0,I127,6,121,What is the name of Socrates' most famous student?,N/A,0,139,plato,PLATO,C,0,C55,6,122,What is the last name of the scientist who discovered radium?,N/A,0,51,curie,CURIE,C,0,C3,6,123,What is the last name of the author who wrote Brothers Karamazov?,no,1.553131106,148,,DOSTOEVSKY,I,0,I28,6,124,What is the last name of the author of the book 1984?,N/A,0,47,orwell,ORWELL,C,0,C133,6,125,What nation signed away a fourth of its European land in a 1918 Treaty?,yes,1.60233249,28,russia,RUSSIA,C,0,C53,6,126,What is the northernmost country in continental South America?,no,1.703361501,84,colombia,COLOMBIA,C,0,C100,6,127,What kind of animal was befriended by the escaped slave Androcles in an Aesop Fable?,N/A,0,110,donkey,LION,I,0,I1,6,128,What is the name of the palace in London in which the monarch of England resides?,no,1.472123598,15,,BUCKINGHAM,I,0,I99,6,129,What is the last name of the president who is on the far right when you gaze at Mount Rushmore?,yes,2.476618721,42,lincoln,LINCOLN,C,0,C85,6,130,What animals travel in pods? ,no,2.965622746,135,whales ,WHALES,C,0,I44,6,131,What is the last name of the author of Little Women?,yes,2.861363821,88,,ALCOTT,I,0,I76,6,132,What is the last name of the man who rode horseback in 1775 to warn that the British were coming?,no,2.200476302,143,revere,REVERE,C,0,C105,6,133,What virus killed two million people in 1967?,no,0.806550945,3,smallpox,SMALLPOX,C,1,C16,6,134,What is the last name of the person who always ended her PBS cooking shows with 'Bon appetit'?,no,2.455696637,114,child,CHILD,C,0,C123,6,135,What is the last name of the man who was president directly after James Madison?,yes,1.735559195,24,monroe,MONROE,C,0,C139,6,136,In which country is Angel Falls located?,no,2.236847647,4,venezuela,VENEZUELA,C,0,C23,6,137,What country gave the world the word 'geyser' for a hot spring?,no,1.325967044,30,iceland,ICELAND,C,0,C125,6,138,What is the name of the American who starred in the 1936 Olympics?,no,1.591587795,136,,OWENS,I,0,I49,6,139,What is the last name of the criminal known as Scarface?,no,1.899396642,115,capone,CAPONE,C,0,C107,6,140,What is the last name of the first person to set foot on the moon?,yes,2.287093905,91,armstrong,ARMSTRONG,C,1,C87,6,141,What is the more common name for a mandrill?,no,1.838328004,122,baboon,BABOON,C,0,C95,6,142,What is the last name of the discoverer of the vaccination for smallpox?,yes,3.119879244,121,,JENNER,I,1,I110,6,143,What is the capital of Denmark?,no,2.054325457,141,copenhagen,COPENHAGEN,C,0,C103,6,144,What is the most populous country in Africa?,no,3.283388878,60,nigeria,NIGERIA,C,0,C70,6,145,What is the name of the mansion in Virginia that was Thomas Jefferson's home?,no,1.61614067,103,,MONTICELLO,I,1,I31,6,146,What was the capital of Czechoslovakia?,no,1.547056508,1,,PRAGUE,I,0,I32,6,147,What is the capital of Bulgaria?,yes,1.670762714,23,sophia,SOPHIA,C,0,C106,6,148,What is the longest river in South America?,no,1.552747216,124,amazon,AMAZON,C,0,C42,6,149,In addition to the Kentucky Derby and the Belmont Stakes what horse race comprises the Triple Crown?,no,1.483674939,14,,PREAKNESS,I,0,I5,6,150,What was the name of the zeppelin that exploded in Lakehurst N.J. in 1937?,no,1.647782086,32,,HINDENBURG,I,0,I100,7,1,What kind of animal was befriended by the escaped slave Androcles in an Aesop Fable?,no,8.788799126,70,,LION,I,0,I39,7,2,What country's capital is Tripoli?,yes,2.154555743,53,,LIBYA,I,0,I124,7,3,What major city is on an island in the St. Lawrence River?,no,1.682540322,36,montreal,MONTREAL,C,0,C141,7,4,What is the name of the captain of the Pequod in the book Moby Dick?,N/A,0,143,,AHAB,I,0,I33,7,5,What is the name of the crime in which a person purposely betrays their country?,no,0.491367991,79,treason,TREASON,C,1,C89,7,6,What is the last name of the renowned English author who had been a Polish sailor?,no,1.408578467,89,,CONRAD,I,0,I2,7,7,What is the name of the collar bone?,no,1.702459902,137,clavical,CLAVICLE,I,0,I17,7,8,What is the last name of the author who wrote Oliver Twist?,yes,2.353570948,16,hemmingway,DICKENS,I,0,I26,7,9,What was the name of the Union Ironclad ship that fought the Confederate ironclad Merrimack?,no,1.625115509,54,,MONITOR,I,0,I136,7,10,According to the FDA what's the only fish that produces real caviar?,N/A,0,95,salmon,STURGEON,I,0,I78,7,11,What country suffered the slaughter of half a million Tutsis and Hutus in 1994?,N/A,0,29,rawanda,RWANDA,C,0,I63,7,12,What is the last name of the author who wrote 'The Old Man and the Sea'?,no,1.649062645,42,,HEMINGWAY,I,0,I58,7,13,What's the northernmost Baltic republic?,yes,1.568941783,30,estonia,ESTONIA,C,0,C35,7,14,What is the last name of the artist who is famous for producing images of Campbell's soup cans?,yes,1.609774115,7,,WARHOL,I,0,I21,7,15,What is the last name of the first U.S. President to die in office?,no,3.022752186,46,,HARRISON,I,0,I29,7,16,What is the last name of the man who assassinated President John Kennedy?,no,1.60665339,60,oswald,OSWALD,C,0,C24,7,17,What is the capital of Jamaica?,N/A,0,55,kingston,KINGSTON,C,0,C108,7,18,Who was The Friendly Ghost?,N/A,0,104,casper,CASPER,C,0,C59,7,19,What is the name of a female sheep?,no,1.486453968,111,ewe,EWE,C,0,C47,7,20,In what ancient city were the Hanging Gardens located?,yes,1.963416717,125,,BABYLON,I,0,I133,7,21,What nation signed away a fourth of its European land in a 1918 Treaty?,no,1.224009037,2,spain,RUSSIA,I,1,I84,7,22,What's heaven to fallen Norse warriors?,no,1.40056401,112,,VALHALLA,I,0,I43,7,23,What is the last name of the second U.S. president?,no,1.619405939,11,adams,ADAMS,C,0,C68,7,24,What Peanuts character clings to a security blanket?,no,1.688393764,86,linus,LINUS,C,0,C148,7,25,What country's ships transported four million African slaves to Brazil?,N/A,0,116,portugal,PORTUGAL,C,0,C134,7,26,What country's civil war was described as a 'rehearsal for World War II'?,yes,1.670564476,103,spain,SPAIN,C,1,C107,7,27,What is the last name of the first person to set foot on the moon?,yes,2.216811394,32,armstrong,ARMSTRONG,C,0,C97,7,28,Brown vs. Board of Education the landmark civil-rights case originated in what state?,N/A,0,93,virginia,KANSAS,I,0,I42,7,29,In addition to the Kentucky Derby and the Belmont Stakes what horse race comprises the Triple Crown?,yes,2.094235074,57,preakness,PREAKNESS,C,1,C61,7,30,What is the last name of the author of the James Bond novels?,no,1.720726644,123,,FLEMING,I,0,I139,7,31,In which country is Angel Falls located?,N/A,0,6,canada,VENEZUELA,I,0,I67,7,32,What is the last name of the man who wrote the Star Spangled Banner?,no,1.847164604,13,,KEY,I,0,I117,7,33,What human organ (or organs) does a nephrologist treat?,no,1.998195372,84,kidney,KIDNEY,C,0,C88,7,34,What igneous rock makes up the bulk of Devils Tower?,no,1.720212914,5,basalt,BASALT,C,0,C82,7,35,What is the last name of the Russian novelist Teddy Roosevelt called 'a sexual and moral pervert'?,yes,2.142496749,127,,TOLSTOY,I,0,I50,7,36,The general named Hannibal was from what city?,no,1.412743694,45,,CARTHAGE,I,0,I36,7,37,What sitcom received a record 117 Emmy nominations?,N/A,0,69,seinfel,CHEERS,I,0,I145,7,38,What is the last name of the man who invented dynamite?,no,1.605194996,121,,NOBEL,I,0,I115,7,39,Who was the leader of the Argonauts?,yes,3.328268885,51,,JASON,I,1,I32,7,40,What is the capital of Bulgaria?,yes,2.329789708,92,sophia,SOPHIA,C,0,C122,7,41,Which dynasty was in power throughout the 1500's in China?,N/A,0,68,ming,MING,C,0,C143,7,42,What is the Taj Majal made of?,N/A,0,21,marble,MARBLE,C,0,C140,7,43,What country was formerly known as the Belgian Congo?,no,3.154910829,73,zaire,ZAIRE,C,1,C129,7,44,What was Cinderella's coach made from?,N/A,0,39,pumpkin,PUMPKIN,C,0,C62,7,45,In which city is Michelangelo's statue of David located?,N/A,0,43,vatican,FLORENCE,I,0,I137,7,46,What liquor packs the punch in an Aztec Punch?,no,1.612055599,20,tequila,TEQUILA,C,0,C40,7,47,What's the largest gland in the human body?,no,0.744945736,119,liver,LIVER,C,1,C56,7,48,What is the last name of the commander who lost the battle of the Little Bighorn River?,no,1.498756497,117,,CUSTER,I,0,I30,7,49,What is the name of the organ that produces insulin?,N/A,0,64,kidney,PANCREAS,I,0,I85,7,50,What animals travel in pods? ,no,1.505043363,98,whales,WHALES,C,0,C19,7,51,What is May's birthstone?,N/A,0,3,ruby,EMERALD,I,0,I23,7,52,What country gave the world the word 'geyser' for a hot spring?,no,1.543995215,139,iceland,ICELAND,C,0,C91,7,53,What is the last name of the man who supposedly killed Jesse James?,no,1.4731412,138,,FORD,I,0,I111,7,54,What is the name for a medical doctor who specializes in diseases of the skin?,N/A,0,19,dermatologist,DERMATOLOGIST,C,0,C70,7,55,What is the name of the mansion in Virginia that was Thomas Jefferson's home?,N/A,0,31,monticello,MONTICELLO,C,0,C101,7,56,In which city is Heathrow Airport located?,yes,1.52435009,12,london,LONDON,C,0,C113,7,57,What is the last name of the villainous captain in the story Peter Pan?,no,1.608674478,35,hook,HOOK,C,0,C5,7,58,What was the name of the zeppelin that exploded in Lakehurst N.J. in 1937?,no,1.61826687,90,henniburg,HINDENBURG,I,0,I109,7,59,What is the name of the kind of cat that spoke to Alice in the story Alice's adventures in Wonderland?,no,1.468369486,136,,CHESHIRE,I,0,I116,7,60,What is the last name of the person who defined 'The Beat Generation'?,no,2.167286834,71,,KEROUAC,I,0,I27,7,61,What is the name of the submarine in Jules Vernes's 20000 Leagues under the Sea?,yes,2.451734139,22,,NAUTILUS,I,0,I6,7,62,In the bible whose name was changed to Israel?,N/A,0,102,moses,JACOB,I,0,I128,7,63,What is the name of a dried plum?,N/A,0,8,apricot,PRUNE,I,0,I15,7,64,What is the last name of the male star of the movie Casablanca?,no,1.609799341,141,,BOGART,I,0,I41,7,65,What is the name of the furry animal that attacks cobra snakes?,no,1.741451787,83,,MONGOOSE,I,0,I94,7,66,What were raced in Greek and Roman hippodromes? ,no,1.529043718,48,horses,HORSES,C,0,C9,7,67,What is the last name of Batman's secret identity in the Batman comics?,N/A,0,76,arthur,WAYNE,I,0,I95,7,68,What is the last name of the discoverer of the vaccination for smallpox?,no,1.688688504,62,,JENNER,I,0,I106,7,69,What is the longest river in South America?,no,3.828805829,149,amazon,AMAZON,C,0,C65,7,70,Who was the most famous Greek doctor?,no,1.497590984,124,hippocrates,HIPPOCRATES,C,0,C98,7,71,Of which country is Nairobi the capital?,N/A,0,59,kenya,KENYA,C,0,C73,7,72,What country has the ancient ruins of Machu Picchu?,N/A,0,108,mexico,PERU,I,0,I37,7,73,What is the last name of the boy in the book Treasure Island?,no,1.481301844,106,,HAWKINS,I,0,I0,7,74,What is the name of the river that runs through Rome?,no,1.639092128,1,,TIBER,I,0,I77,7,75,What brand name drug is most often prescribed to treat attention deficit disorder?,N/A,0,122,ritalin,RITALIN,C,0,C131,7,76,What staple crop does half the world's population depend on?,N/A,0,44,wheat,RICE,I,0,I31,7,77,What was the capital of Czechoslovakia?,yes,2.052286139,9,prague,PRAGUE,C,0,C14,7,78,Who was the title character in 'The Merchant of Venice'?,no,1.924272609,150,,ANTONIO,I,0,I135,7,79,What was the name of the mythological creature with the head of a woman and the body of a lion that killed all those unable to solve its riddle?,yes,2.400242683,130,sphinx,SPHINX,C,0,C46,7,80,In what European city is the Parthenon located?,yes,1.698669476,24,athens,ATHENS,C,0,C125,7,81,What is the name of the American who starred in the 1936 Olympics?,N/A,0,25,owens,OWENS,C,0,C25,7,82,What is the name of the project which developed the atomic bomb during World War II?,N/A,0,131,manhattan,MANHATTAN,C,0,C10,7,83,What is the last name of the man who wrote Canterbury Tales?,no,1.280627821,114,,CHAUCER,I,0,I110,7,84,What is the capital of Denmark?,no,3.145747911,27,,COPENHAGEN,I,0,I18,7,85,What is the capital of Delaware?,no,1.54034671,67,,DOVER,I,0,I102,7,86,What is the capital of Russia?,N/A,0,34,moscow,MOSCOW,C,0,C16,7,87,What is the last name of the person who always ended her PBS cooking shows with 'Bon appetit'?,N/A,0,56,julia child,CHILD,C,0,I118,7,88,What is the last name of the man who began the Protestant reformation in Germany?,N/A,0,142,hager,LUTHER,I,0,I103,7,89,What is the most populous country in Africa?,N/A,0,145,south africa,NIGERIA,I,0,I64,7,90,What kind of poison did Socrates take at his execution?,N/A,0,75,hemlock,HEMLOCK,C,0,C51,7,91,Who was the first ruler of the Holy Roman Empire?,yes,1.793531631,18,charlamane,CHARLEMAGNE,C,0,I120,7,92,What city was Martin Luther King Jr. assassinated in?,N/A,0,133,montgomery,MEMPHIS,I,0,I22,7,93,Of which country is Budapest the capital?,yes,2.414071045,40,hungary,HUNGARY,C,0,C90,7,94,What Old Testament patriarch is mentioned in the Bible a record 1005 times?,no,1.204164976,80,david,DAVID,C,1,C142,7,95,Which big cat usually carries its dead prey up into a tree to eat it?,no,2.539569019,78,leopard,LEOPARD,C,0,C44,7,96,What is the last name of the author of Little Women?,yes,3.984563402,47,,ALCOTT,I,0,I80,7,97,What is the capital of Chile?,no,2.202262326,148,santiago,SANTIAGO,C,0,C81,7,98,In what country is the Dalai Lama's palace?,N/A,0,23,india,TIBET,I,0,I87,7,99,What is the more common name for a mandrill?,no,1.802784027,87,baboon,BABOON,C,0,C38,7,100,What is the last name of the author who wrote Brave New World?,no,1.775608654,115,,HUXLEY,I,0,I45,7,101,What is the last name of the actress who received the Best Actress Award for the movie 'Mary Poppins'?,yes,3.074429571,33,,ANDREWS,I,0,I79,7,102,What spice do chefs pay the most for?,no,2.90526476,28,sapphron,SAFFRON,I,0,I66,7,103,Over which river is the George Washington Bridge?,N/A,0,97,hudson,HUDSON,C,0,C76,7,104,What is the last name of the man who rode horseback in 1775 to warn that the British were coming?,N/A,0,107,revere,REVERE,C,0,C132,7,105,What was the last name of the woman who designed and sewed the first American flag?,no,0.847803166,113,ross,ROSS,C,1,C11,7,106,What is the last name of the Confederate general whose last words were 'Let us cross the river and rest in the shade'?,no,1.677728074,94,jackson,JACKSON,C,0,C60,7,107,What is the name of the unit of measure that refers to a six-foot depth of water?,yes,4.368036865,38,,FATHOM,I,0,I86,7,108,What nuts are used in marzipan? ,N/A,0,58,hazelnuts,ALMONDS,I,0,I126,7,109,What is the last name of the artist who painted Guernica?,no,1.520023609,26,picasso,PICASSO,C,0,C112,7,110,What is the first book of the Old Testament?,N/A,0,88,genesis,GENESIS,C,0,C130,7,111,What's the 'Q' short for in Q-Tips?,no,1.527433128,50,quality,QUALITY,C,0,C138,7,112,What is the largest city in Canada?,N/A,0,147,toronto,TORONTO,C,0,C49,7,113,What is the last name of the criminal known as Scarface?,yes,3.048624571,101,capone,CAPONE,C,0,C4,7,114,What was the name of the first Apollo lunar module that landed the first man on the moon?,no,0.724227304,129,1,EAGLE,I,1,I99,7,115,What is the last name of the president who is on the far right when you gaze at Mount Rushmore?,yes,2.276459966,41,lincoln,LINCOLN,C,0,C53,7,116,What is the northernmost country in continental South America?,no,2.155022343,85,colombia,COLOMBIA,C,0,C74,7,117,In which sport does a rider on horseback hit a ball with a mallet?,N/A,0,15,polo,POLO,C,0,C48,7,118,What is the name of the man who assassinated Abraham Lincoln?,yes,1.700483373,120,,BOOTH,I,0,I71,7,119,What is the name of the British admiral who won the Battle of Trafalgar?,no,1.531664537,96,,NELSON,I,0,I54,7,120,What is the name of the island on which Napoleon was born?,no,3.462548721,132,,CORSICA,I,1,I147,7,121,What is the name of the constellation that looks like a flying horse?,no,1.425113141,144,,PEGASUS,I,0,I83,7,122,What is the name of the mountain range that separates Asia from Europe?,no,3.495320252,82,uler,URAL,I,0,I57,7,123,What is the last name of the man who invented the phonograph?,no,1.530564118,74,,EDISON,I,0,I69,7,124,What is the highest mountain in the U.S.?,no,1.162914643,52,,MCKINLEY,I,1,I123,7,125,What is the last name of the man who was president directly after James Madison?,no,2.309651403,65,,MONROE,I,1,I55,7,126,What is the last name of the scientist who discovered radium?,no,2.713744121,140,,CURIE,I,0,I75,7,127,What is the world's largest snake?,N/A,0,91,anaconda,PYTHON,I,0,I8,7,128,What is the unit of electrical power that refers to the current of one ampere at one volt?,N/A,0,63,jule,WATT,I,0,I28,7,129,What is the last name of the author of the book 1984?,N/A,0,110,orwell,ORWELL,C,0,C52,7,130,What is the capital of Wyoming?,yes,2.331344552,49,cheyenne,CHEYENNE,C,0,C12,7,131,What drug was named after the Greek god of dreams?,no,1.546101216,37,morphine,MORPHINE,C,0,C104,7,132,What is the name of the process by which plants make their food?,N/A,0,14,photosynthesis,PHOTOSYNTHESIS,C,0,C34,7,133,What is the name of the avenue that immediately follows Atlantic Avenue in the game of Monopoly?,no,3.57166357,118,,VENTNOR,I,1,I119,7,134,What is the name of the ship that carried the pilgrims to America in 1620?,N/A,0,77,mayflower,MAYFLOWER,C,0,C105,7,135,What virus killed two million people in 1967?,N/A,0,126,influenza,SMALLPOX,I,0,I3,7,136,What is the last name of the author who wrote Brothers Karamazov?,no,1.951128322,128,dotovsky,DOSTOEVSKY,I,0,I93,7,137,What island is the largest in the world excluding Australia?,N/A,0,109,madagascar,GREENLAND,I,0,I96,7,138,What is the last name of the person who has graced the most Sports Illustrated covers?,yes,4.815654609,81,,JORDAN,I,1,I127,7,139,What is the name of Socrates' most famous student?,N/A,0,17,plato,PLATO,C,0,C13,7,140,What is the name of Batman's butler?,N/A,0,146,arthur,ALFRED,I,0,I121,7,141,What is the name for the astronomical bodies that enter the earth's atmosphere?,yes,3.473387107,66,meteor,METEORS,C,0,I92,7,142,What is the last name of the man who showed that lightning is electricity?,no,3.882512592,100,franklin,FRANKLIN,C,0,C1,7,143,What is the name of the palace in London in which the monarch of England resides?,no,2.31235138,135,buckingham,BUCKINGHAM,C,0,C146,7,144,What country joins Central America to South America?,yes,3.023618538,61,panama,PANAMA,C,0,C114,7,145,What company invented the microprocessor in 1971?,N/A,0,99,intel,INTEL,C,0,C72,7,146,What colorless gas is essential in the production of fertilizers and light bulbs?,no,3.032487593,10,nitrogen,NITROGEN,C,0,C20,7,147,What is the capital of Kentucky?,no,0.815225437,4,,FRANKFORT,I,1,I144,7,148,What is the last name of the composer who wrote the opera 'Don Giovanni'?,no,1.962506192,134,mozart,MOZART,C,0,C7,7,149,What is the last name of the man who first studied genetic inheritance in plants?,no,2.600509882,72,darwin,MENDEL,I,1,I149,7,150,What is the last name of the singer who recorded 'Heartbreak Hotel' and 'All Shook Up'?,yes,2.065731055,105,presley,PRESLEY,C,0,C12,8,1,What drug was named after the Greek god of dreams?,no,2.013112978,69,morphine,MORPHINE,C,0,C82,8,2,What is the last name of the Russian novelist Teddy Roosevelt called 'a sexual and moral pervert'?,no,1.727920479,27,tolstoy,TOLSTOY,C,0,C5,8,3,What was the name of the zeppelin that exploded in Lakehurst N.J. in 1937?,no,1.617431371,2,hindenburg,HINDENBURG,C,0,C50,8,4,The general named Hannibal was from what city?,no,2.12165443,80,,CARTHAGE,I,0,I125,8,5,What is the name of the American who starred in the 1936 Olympics?,no,1.795868085,38,owens,OWENS,C,0,C90,8,6,What Old Testament patriarch is mentioned in the Bible a record 1005 times?,no,2.134696022,105,david,DAVID,C,0,C64,8,7,What kind of poison did Socrates take at his execution?,yes,2.520261874,11,hemlock,HEMLOCK,C,0,C84,8,8,What's heaven to fallen Norse warriors?,no,1.343530826,123,valhalla,VALHALLA,C,1,C21,8,9,What is the last name of the first U.S. President to die in office?,no,1.330764706,133,lincoln,HARRISON,I,1,I61,8,10,What is the last name of the author of the James Bond novels?,no,1.228871113,124,,FLEMING,I,0,I43,8,11,What is the last name of the second U.S. president?,no,2.262743459,31,adams,ADAMS,C,0,C97,8,12,Brown vs. Board of Education the landmark civil-rights case originated in what state?,N/A,0,141,mississippi,KANSAS,I,0,I83,8,13,What is the name of the mountain range that separates Asia from Europe?,yes,2.946880571,89,ural,URAL,C,0,C65,8,14,Who was the most famous Greek doctor?,no,1.066360522,60,hippocrates,HIPPOCRATES,C,0,C104,8,15,What is the name of the process by which plants make their food?,N/A,0,72,photosynthesis,PHOTOSYNTHESIS,C,1,C129,8,16,What was Cinderella's coach made from?,N/A,0,113,pumpkin,PUMPKIN,C,0,C35,8,17,What is the last name of the artist who is famous for producing images of Campbell's soup cans?,N/A,0,87,warhol,WARHOL,C,0,C110,8,18,What is the capital of Denmark?,N/A,0,130,oslo,COPENHAGEN,I,0,I105,8,19,What virus killed two million people in 1967?,no,1.505306474,147,smallpox,SMALLPOX,C,0,C103,8,20,What is the most populous country in Africa?,no,2.195556659,3,nigeria,NIGERIA,C,1,C122,8,21,Which dynasty was in power throughout the 1500's in China?,no,2.953185752,148,ming,MING,C,1,C39,8,22,What country's capital is Tripoli?,yes,1.879104021,59,libya,LIBYA,C,0,C44,8,23,What is the last name of the author of Little Women?,no,2.163683817,45,alcott,ALCOTT,C,0,C139,8,24,In which country is Angel Falls located?,no,0.430105184,109,venezuela,VENEZUELA,C,0,C42,8,25,In addition to the Kentucky Derby and the Belmont Stakes what horse race comprises the Triple Crown?,no,1.552998622,107,,PREAKNESS,I,0,I92,8,26,What is the last name of the man who showed that lightning is electricity?,no,1.655192403,22,franklin,FRANKLIN,C,1,C91,8,27,What is the last name of the man who supposedly killed Jesse James?,no,0.310024896,137,,FORD,I,0,I95,8,28,What is the last name of the discoverer of the vaccination for smallpox?,no,1.507443235,9,,JENNER,I,0,I78,8,29,What country suffered the slaughter of half a million Tutsis and Hutus in 1994?,N/A,0,16,congo,RWANDA,I,0,I142,8,30,Which big cat usually carries its dead prey up into a tree to eat it?,no,1.68391279,98,leopard,LEOPARD,C,0,C3,8,31,What is the last name of the author who wrote Brothers Karamazov?,N/A,0,10,dostoyevsky,DOSTOEVSKY,C,0,I56,8,32,What is the last name of the commander who lost the battle of the Little Bighorn River?,no,2.128037853,49,jackon,CUSTER,I,0,I102,8,33,What is the capital of Russia?,N/A,0,85,moscow,MOSCOW,C,0,C100,8,34,What kind of animal was befriended by the escaped slave Androcles in an Aesop Fable?,no,1.574276986,65,lion,LION,C,0,C28,8,35,What is the last name of the author of the book 1984?,yes,3.280504025,94,orwell,ORWELL,C,0,C141,8,36,What is the name of the captain of the Pequod in the book Moby Dick?,no,3.353013719,110,,AHAB,I,0,I24,8,37,What is the capital of Jamaica?,no,1.858577566,119,kingston,KINGSTON,C,0,C25,8,38,What is the name of the project which developed the atomic bomb during World War II?,N/A,0,111,manhattan,MANHATTAN,C,0,C62,8,39,In which city is Michelangelo's statue of David located?,no,1.498682313,77,florence,FLORENCE,C,0,C33,8,40,What is the name of the crime in which a person purposely betrays their country?,no,0.882582463,142,treason,TREASON,C,1,C114,8,41,What company invented the microprocessor in 1971?,N/A,0,115,intel,INTEL,C,0,C19,8,42,What is May's birthstone?,no,1.725102903,127,emerald,EMERALD,C,0,C57,8,43,What is the last name of the man who invented the phonograph?,no,0.561188078,135,edison,EDISON,C,1,C2,8,44,What is the name of the collar bone?,N/A,0,134,clavicule,CLAVICLE,C,0,I15,8,45,What is the last name of the male star of the movie Casablanca?,no,1.55298154,90,,BOGART,I,0,I76,8,46,What is the last name of the man who rode horseback in 1775 to warn that the British were coming?,no,1.845118712,46,revere,REVERE,C,0,C23,8,47,What country gave the world the word 'geyser' for a hot spring?,no,2.069479164,101,iceland,ICELAND,C,0,C59,8,48,What is the name of a female sheep?,no,0.277964854,144,ewe,EWE,C,0,C77,8,49,What brand name drug is most often prescribed to treat attention deficit disorder?,N/A,0,43,ritalin,RITALIN,C,0,C